subid	 subage	 gender	 EST	 correct	 feedback	 blockNr	 keyPressed	 trialNumber	 WhichStim	 WhichCue	 ReactionTime	 KeyOrder
113	22	 M	0	1	1	2	0	1	0	182	403.14	1
113	22	 M	0	0	0	2	0	2	1	182	444.00	1
113	22	 M	0	1	1	2	0	3	0	231	399.73	1
113	22	 M	0	1	1	2	0	4	0	231	228.76	1
113	22	 M	0	0	0	2	0	5	0	182	222.61	1
113	22	 M	0	1	0	2	1	6	1	281	269.06	1
113	22	 M	0	1	1	2	0	7	0	231	206.96	1
113	22	 M	0	1	1	2	0	8	0	231	191.75	1
113	22	 M	0	1	1	2	0	9	0	231	197.23	1
113	22	 M	0	1	0	2	0	10	0	231	230.61	1
113	22	 M	0	1	0	2	0	11	0	281	343.70	1
113	22	 M	0	1	1	2	0	12	0	231	192.31	1
113	22	 M	0	1	1	2	1	13	1	132	179.13	1
113	22	 M	0	1	0	2	1	14	1	182	336.44	1
113	22	 M	0	1	0	2	1	15	1	132	218.24	1
113	22	 M	0	1	1	2	1	16	1	132	166.43	1
113	22	 M	0	1	0	2	1	17	1	132	219.05	1
113	22	 M	0	1	0	2	0	18	0	231	196.33	1
113	22	 M	0	1	1	2	1	19	1	132	150.04	1
113	22	 M	0	1	0	2	1	20	1	132	224.98	1
113	22	 M	0	1	0	2	1	21	1	132	207.08	1
113	22	 M	0	1	0	2	0	22	0	231	187.49	1
113	22	 M	0	1	0	2	1	23	1	281	222.65	1
113	22	 M	0	1	0	2	1	24	1	132	184.80	1
113	22	 M	0	1	1	2	0	25	0	231	173.43	1
113	22	 M	0	1	0	2	0	26	0	231	231.46	1
113	22	 M	0	1	0	2	1	27	1	182	421.94	1
113	22	 M	0	1	0	2	0	28	0	231	209.13	1
113	22	 M	0	1	0	2	1	29	1	132	196.04	1
113	22	 M	0	1	1	2	1	30	1	132	85.15	1
113	22	 M	0	0	0	2	0	31	1	281	448.85	1
113	22	 M	0	1	0	2	1	32	1	132	193.37	1
113	22	 M	0	1	0	2	0	33	0	231	170.28	1
113	22	 M	0	1	0	2	1	34	1	182	325.91	1
113	22	 M	0	1	0	2	1	35	1	132	477.23	1
113	22	 M	0	1	0	2	1	36	1	132	199.52	1
113	22	 M	0	1	0	2	0	37	0	231	70297.42	1
113	22	 M	0	1	0	2	1	38	1	132	253.58	1
113	22	 M	0	1	0	2	0	39	0	182	469.00	1
113	22	 M	0	1	0	2	0	40	0	182	516.51	1
113	22	 M	0	1	0	2	0	41	0	231	589.08	1
113	22	 M	0	1	0	2	1	42	1	132	322.38	1
113	22	 M	0	0	0	2	0	43	0	231	217.03	1
113	22	 M	0	1	0	2	0	44	0	231	449.70	1
113	22	 M	0	1	0	2	1	45	1	281	240.15	1
113	22	 M	0	1	0	2	1	46	1	132	185.45	1
113	22	 M	0	1	0	2	0	47	0	182	207.00	1
113	22	 M	0	1	1	2	1	48	1	132	78.69	1
113	22	 M	0	1	0	2	0	49	0	281	341.25	1
113	22	 M	0	1	0	2	1	50	1	132	165.98	1
113	22	 M	0	0	0	2	0	51	0	281	283.44	1
113	22	 M	0	0	0	2	0	52	1	281	370.84	1
113	22	 M	0	1	0	2	0	53	0	231	192.52	1
113	22	 M	0	1	0	2	0	54	0	231	13647.69	1
113	22	 M	0	1	0	2	0	55	0	231	213.43	1
113	22	 M	0	1	0	2	1	56	1	132	191.61	1
113	22	 M	0	1	0	2	1	57	1	132	187.35	1
113	22	 M	0	1	0	2	1	58	1	182	361.76	1
113	22	 M	0	1	0	2	0	59	0	281	325.56	1
113	22	 M	0	1	0	2	0	60	0	281	206.95	1
114	21	 F	0	1	1	2	0	1	0	281	780.56	1
114	21	 F	0	1	1	2	1	2	1	182	362.60	1
114	21	 F	0	1	0	2	1	3	1	132	457.29	1
114	21	 F	0	1	0	2	0	4	0	231	390.99	1
114	21	 F	0	1	0	2	0	5	0	281	448.98	1
114	21	 F	0	1	0	2	1	6	1	281	392.31	1
114	21	 F	0	1	1	2	0	7	0	231	213.89	1
114	21	 F	0	1	1	2	1	8	1	132	231.89	1
114	21	 F	0	1	1	2	0	9	0	231	220.40	1
114	21	 F	0	1	1	2	0	10	0	231	226.13	1
114	21	 F	0	1	0	2	1	11	1	132	259.39	1
114	21	 F	0	1	1	2	1	12	1	132	221.85	1
114	21	 F	0	1	0	2	0	13	0	182	244.06	1
114	21	 F	0	1	1	2	0	14	0	231	218.52	1
114	21	 F	0	1	0	2	0	15	0	231	339.96	1
114	21	 F	0	1	1	2	0	16	0	231	221.78	1
114	21	 F	0	1	0	2	1	17	1	281	353.19	1
114	21	 F	0	1	1	2	1	18	1	132	187.79	1
114	21	 F	0	1	0	2	0	19	0	231	44714.04	1
114	21	 F	0	1	0	2	0	20	0	231	407.70	1
114	21	 F	0	1	0	2	1	21	1	281	323.12	1
114	21	 F	0	1	0	2	0	22	0	231	241.86	1
114	21	 F	0	1	0	2	1	23	1	132	296.99	1
114	21	 F	0	1	0	2	0	24	0	231	233.70	1
114	21	 F	0	1	1	2	1	25	1	132	202.79	1
114	21	 F	0	1	0	2	0	26	0	231	245.39	1
114	21	 F	0	1	0	2	1	27	1	182	393.88	1
114	21	 F	0	1	0	2	0	28	0	231	253.29	1
114	21	 F	0	1	0	2	1	29	1	132	246.79	1
114	21	 F	0	1	0	2	0	30	0	182	220.99	1
114	21	 F	0	1	0	2	1	31	1	182	291.77	1
114	21	 F	0	1	0	2	1	32	1	132	315.10	1
114	21	 F	0	1	0	2	0	33	0	231	280.12	1
114	21	 F	0	1	0	2	1	34	1	132	342.39	1
114	21	 F	0	1	0	2	1	35	1	132	281.75	1
114	21	 F	0	1	0	2	1	36	1	132	289.24	1
114	21	 F	0	1	0	2	1	37	1	132	226.35	1
114	21	 F	0	1	0	2	1	38	1	132	286.68	1
114	21	 F	0	1	0	2	0	39	0	231	239.10	1
114	21	 F	0	1	0	2	0	40	0	182	448.70	1
114	21	 F	0	1	0	2	1	41	1	281	300.14	1
114	21	 F	0	1	0	2	1	42	1	132	415.72	1
114	21	 F	0	1	0	2	1	43	1	132	238.81	1
114	21	 F	0	0	0	2	0	44	1	182	1244.39	1
114	21	 F	0	1	0	2	1	45	1	132	431.38	1
114	21	 F	0	1	0	2	0	46	0	281	471.05	1
114	21	 F	0	1	0	2	1	47	1	281	473.34	1
114	21	 F	0	1	0	2	0	48	0	281	478.38	1
114	21	 F	0	1	0	2	0	49	0	231	286.55	1
114	21	 F	0	1	0	2	0	50	0	231	229.15	1
114	21	 F	0	1	0	2	0	51	0	182	435.73	1
114	21	 F	0	1	0	2	1	52	1	132	256.53	1
114	21	 F	0	1	0	2	0	53	0	281	350.44	1
114	21	 F	0	1	0	2	1	54	1	132	299.23	1
114	21	 F	0	1	0	2	0	55	0	182	431.93	1
114	21	 F	0	1	0	2	1	56	1	182	323.12	1
114	21	 F	0	1	0	2	0	57	0	231	238.46	1
114	21	 F	0	1	0	2	0	58	0	231	237.32	1
114	21	 F	0	1	0	2	0	59	0	231	236.80	1
114	21	 F	0	1	1	2	1	60	1	132	211.55	1
115	21	 F	0	1	1	2	1	1	1	132	975.30	1
115	21	 F	0	1	1	2	0	2	0	182	619.22	1
115	21	 F	0	1	1	2	1	3	1	132	210.54	1
115	21	 F	0	1	0	2	1	4	1	182	332.25	1
115	21	 F	0	1	1	2	1	5	1	132	234.51	1
115	21	 F	0	1	0	2	1	6	1	281	438.63	1
115	21	 F	0	1	0	2	1	7	1	132	279.48	1
115	21	 F	0	1	0	2	0	8	0	231	242.47	1
115	21	 F	0	1	0	2	0	9	0	281	676.56	1
115	21	 F	0	1	0	2	0	10	0	231	313.05	1
115	21	 F	0	1	1	2	1	11	1	132	227.46	1
115	21	 F	0	1	0	2	0	12	0	231	276.74	1
115	21	 F	0	1	0	2	1	13	1	132	270.78	1
115	21	 F	0	1	0	2	0	14	0	231	258.94	1
115	21	 F	0	1	0	2	0	15	0	281	592.28	1
115	21	 F	0	1	1	2	0	16	0	231	46.07	1
115	21	 F	0	1	0	2	0	17	0	231	200.95	1
115	21	 F	0	1	0	2	1	18	1	132	354.32	1
115	21	 F	0	1	0	2	1	19	1	132	383.11	1
115	21	 F	0	1	0	2	1	20	1	182	396.68	1
115	21	 F	0	1	0	2	0	21	0	231	141.75	1
115	21	 F	0	1	0	2	0	22	0	231	154.73	1
115	21	 F	0	0	0	2	0	23	0	281	250.64	1
115	21	 F	0	1	0	2	1	24	1	132	232.05	1
115	21	 F	0	0	0	2	1	25	0	231	33843.23	1
115	21	 F	0	1	0	2	0	26	0	231	256.97	1
115	21	 F	0	1	0	2	0	27	0	281	360.62	1
115	21	 F	0	1	0	2	0	28	0	281	356.78	1
115	21	 F	0	1	0	2	0	29	0	231	1068.70	1
115	21	 F	0	1	0	2	1	30	1	132	196.07	1
115	21	 F	0	1	0	2	1	31	1	132	184.40	1
115	21	 F	0	0	0	2	0	32	0	231	308.77	1
115	21	 F	0	1	0	2	1	33	1	281	562.40	1
115	21	 F	0	1	0	2	0	34	0	231	220.08	1
115	21	 F	0	1	1	2	1	35	1	132	51.34	1
115	21	 F	0	1	0	2	1	36	1	132	278.58	1
115	21	 F	0	1	0	2	0	37	0	231	343.65	1
115	21	 F	0	1	0	2	0	38	0	231	301.85	1
115	21	 F	0	0	0	2	0	39	1	132	192.79	1
115	21	 F	0	1	0	2	1	40	1	182	460.49	1
115	21	 F	0	1	0	2	0	41	0	231	286.02	1
115	21	 F	0	1	0	2	1	42	1	132	233.54	1
115	21	 F	0	1	0	2	0	43	0	182	373.74	1
115	21	 F	0	1	0	2	1	44	1	281	454.47	1
115	21	 F	0	1	0	2	0	45	0	182	485.72	1
115	21	 F	0	1	0	2	1	46	1	132	171.72	1
115	21	 F	0	1	0	2	0	47	0	182	531.38	1
115	21	 F	0	1	0	2	0	48	0	231	36494.75	1
115	21	 F	0	1	0	2	1	49	1	132	261.12	1
115	21	 F	0	1	0	2	1	50	1	132	269.79	1
115	21	 F	0	1	0	2	0	51	0	231	347.55	1
115	21	 F	0	1	0	2	1	52	1	182	435.98	1
115	21	 F	0	1	0	2	1	53	1	132	204.83	1
115	21	 F	0	1	0	2	1	54	1	281	652.10	1
115	21	 F	0	1	0	2	0	55	0	231	265.63	1
115	21	 F	0	1	0	2	0	56	0	231	194.65	1
115	21	 F	0	1	0	2	1	57	1	182	495.99	1
115	21	 F	0	1	0	2	1	58	1	132	218.20	1
115	21	 F	0	1	0	2	0	59	0	182	370.04	1
115	21	 F	0	1	0	2	1	60	1	281	481.68	1
119	34	 F	1	1	1	2	1	1	1	281	663.51	1
119	34	 F	1	1	1	2	0	2	0	231	672.74	1
119	34	 F	1	1	1	2	0	3	0	231	465.34	1
119	34	 F	1	1	1	2	0	4	0	231	345.15	1
119	34	 F	1	1	0	2	0	5	0	231	484.85	1
119	34	 F	1	1	1	2	1	6	1	132	256.31	1
119	34	 F	1	1	0	2	1	7	1	132	295.51	1
119	34	 F	1	1	0	2	1	8	1	182	414.89	1
119	34	 F	1	1	0	2	1	9	1	182	468.09	1
119	34	 F	1	1	0	2	1	10	1	281	386.06	1
119	34	 F	1	1	0	2	1	11	1	281	413.24	1
119	34	 F	1	1	1	2	0	12	0	231	251.36	1
119	34	 F	1	1	0	2	0	13	0	182	315.90	1
119	34	 F	1	0	0	2	1	14	0	182	15365.87	1
119	34	 F	1	1	0	2	0	15	0	281	423.75	1
119	34	 F	1	1	1	2	1	16	1	132	242.80	1
119	34	 F	1	1	1	2	0	17	0	231	214.04	1
119	34	 F	1	1	0	2	0	18	0	231	288.15	1
119	34	 F	1	1	0	2	1	19	1	132	397.11	1
119	34	 F	1	1	1	2	0	20	0	231	222.45	1
119	34	 F	1	1	0	2	0	21	0	231	294.99	1
119	34	 F	1	1	0	2	0	22	0	281	453.92	1
119	34	 F	1	1	1	2	0	23	0	281	238.58	1
119	34	 F	1	1	0	2	0	24	0	231	252.32	1
119	34	 F	1	1	1	2	1	25	1	132	206.76	1
119	34	 F	1	1	1	2	0	26	0	231	167.44	1
119	34	 F	1	1	0	2	0	27	0	281	245.81	1
119	34	 F	1	1	0	2	0	28	0	231	205.47	1
119	34	 F	1	1	0	2	0	29	0	231	479.62	1
119	34	 F	1	1	0	2	0	30	0	231	206.27	1
119	34	 F	1	1	0	2	0	31	0	231	259.07	1
119	34	 F	1	1	1	2	1	32	1	132	189.91	1
119	34	 F	1	1	1	2	0	33	0	231	188.88	1
119	34	 F	1	0	0	2	0	34	1	281	778.13	1
119	34	 F	1	1	0	2	1	35	1	132	290.07	1
119	34	 F	1	1	0	2	1	36	1	132	200.37	1
119	34	 F	1	1	0	2	1	37	1	132	202.03	1
119	34	 F	1	1	0	2	1	38	1	182	331.30	1
119	34	 F	1	1	0	2	1	39	1	132	231.31	1
119	34	 F	1	1	0	2	1	40	1	132	371.55	1
119	34	 F	1	1	0	2	1	41	1	132	235.84	1
119	34	 F	1	1	0	2	1	42	1	132	525.82	1
119	34	 F	1	1	0	2	0	43	0	281	319.79	1
119	34	 F	1	1	0	2	1	44	1	132	272.96	1
119	34	 F	1	1	0	2	0	45	0	182	464.73	1
119	34	 F	1	1	0	2	1	46	1	132	502.94	1
119	34	 F	1	1	1	2	0	47	0	231	79.82	1
119	34	 F	1	1	0	2	1	48	1	182	408.77	1
119	34	 F	1	1	0	2	0	49	0	182	441.49	1
119	34	 F	1	1	0	2	1	50	1	132	218.26	1
119	34	 F	1	1	0	2	0	51	0	231	217.10	1
119	34	 F	1	1	0	2	1	52	1	132	188.31	1
119	34	 F	1	1	0	2	1	53	1	132	210.84	1
119	34	 F	1	1	0	2	0	54	0	231	634.59	1
119	34	 F	1	1	0	2	1	55	1	132	418.25	1
119	34	 F	1	1	0	2	0	56	0	231	9298.74	1
119	34	 F	1	1	0	2	0	57	0	182	508.88	1
119	34	 F	1	1	0	2	1	58	1	281	240.31	1
119	34	 F	1	1	0	2	1	59	1	182	238.23	1
119	34	 F	1	1	0	2	1	60	1	132	180.69	1
120	60	 F	1	1	1	2	1	1	1	182	880.18	1
120	60	 F	1	1	1	2	1	2	1	132	758.71	1
120	60	 F	1	1	1	2	1	3	1	132	542.43	1
120	60	 F	1	1	1	2	1	4	1	132	291.09	1
120	60	 F	1	1	1	2	0	5	0	231	252.98	1
120	60	 F	1	1	0	2	0	6	0	231	378.84	1
120	60	 F	1	1	1	2	1	7	1	132	239.45	1
120	60	 F	1	1	0	2	1	8	1	182	591.86	1
120	60	 F	1	1	1	2	1	9	1	132	251.71	1
120	60	 F	1	1	0	2	0	10	0	231	287.22	1
120	60	 F	1	1	1	2	0	11	0	231	242.74	1
120	60	 F	1	1	1	2	1	12	1	132	263.64	1
120	60	 F	1	1	0	2	1	13	1	132	343.32	1
120	60	 F	1	0	0	2	1	14	0	281	494.64	1
120	60	 F	1	1	0	2	1	15	1	132	381.62	1
120	60	 F	1	1	1	2	1	16	1	132	243.46	1
120	60	 F	1	1	1	2	0	17	0	231	258.75	1
120	60	 F	1	1	0	2	1	18	1	281	487.52	1
120	60	 F	1	1	0	2	0	19	0	281	452.37	1
120	60	 F	1	1	1	2	0	20	0	231	235.12	1
120	60	 F	1	1	1	2	0	21	0	231	218.45	1
120	60	 F	1	1	1	2	1	22	1	132	209.79	1
120	60	 F	1	0	0	2	0	23	1	182	486.28	1
120	60	 F	1	1	0	2	0	24	0	231	245.62	1
120	60	 F	1	1	0	2	1	25	1	132	243.52	1
120	60	 F	1	1	0	2	0	26	0	182	856.29	1
120	60	 F	1	1	1	2	0	27	0	231	206.35	1
120	60	 F	1	1	1	2	0	28	0	231	226.14	1
120	60	 F	1	1	0	2	1	29	1	281	813.23	1
120	60	 F	1	1	0	2	1	30	1	281	609.20	1
120	60	 F	1	1	0	2	0	31	0	231	241.87	1
120	60	 F	1	1	0	2	1	32	1	132	275.55	1
120	60	 F	1	0	0	2	1	33	0	281	566.03	1
120	60	 F	1	1	0	2	1	34	1	132	676.13	1
120	60	 F	1	1	0	2	1	35	1	281	600.83	1
120	60	 F	1	1	0	2	1	36	1	182	568.91	1
120	60	 F	1	1	0	2	1	37	1	132	387.94	1
120	60	 F	1	1	0	2	1	38	1	132	233.96	1
120	60	 F	1	1	1	2	1	39	1	132	227.41	1
120	60	 F	1	1	0	2	1	40	1	132	290.96	1
120	60	 F	1	1	0	2	0	41	0	231	512.54	1
120	60	 F	1	1	0	2	0	42	0	281	634.97	1
120	60	 F	1	1	0	2	1	43	1	132	413.92	1
120	60	 F	1	1	0	2	0	44	0	182	647.55	1
120	60	 F	1	1	0	2	1	45	1	182	735.23	1
120	60	 F	1	1	1	2	0	46	0	231	210.81	1
120	60	 F	1	1	1	2	0	47	0	231	206.64	1
120	60	 F	1	1	0	2	0	48	0	182	772.77	1
120	60	 F	1	1	0	2	0	49	0	231	277.97	1
120	60	 F	1	1	0	2	0	50	0	231	232.45	1
120	60	 F	1	1	0	2	1	51	1	281	611.19	1
120	60	 F	1	1	1	2	0	52	0	231	226.65	1
120	60	 F	1	1	0	2	0	53	0	281	515.46	1
120	60	 F	1	1	1	2	0	54	0	231	219.28	1
120	60	 F	1	0	0	2	1	55	0	182	1083.79	1
120	60	 F	1	1	0	2	1	56	1	132	487.63	1
120	60	 F	1	1	0	2	0	57	0	182	1078.67	1
120	60	 F	1	1	0	2	0	58	0	231	470.45	1
120	60	 F	1	1	0	2	1	59	1	132	270.08	1
120	60	 F	1	1	0	2	0	60	0	231	330.79	1
121	40	 F	1	1	1	2	1	1	1	132	875.03	1
121	40	 F	1	1	1	2	0	2	0	231	380.65	1
121	40	 F	1	1	0	2	1	3	1	132	519.41	1
121	40	 F	1	1	0	2	1	4	1	132	417.03	1
121	40	 F	1	1	1	2	1	5	1	132	260.42	1
121	40	 F	1	1	0	2	0	6	0	281	558.07	1
121	40	 F	1	1	0	2	1	7	1	132	292.16	1
121	40	 F	1	1	0	2	1	8	1	132	311.16	1
121	40	 F	1	1	1	2	0	9	0	231	279.36	1
121	40	 F	1	1	0	2	1	10	1	132	380.36	1
121	40	 F	1	1	1	2	0	11	0	231	284.05	1
121	40	 F	1	1	0	2	1	12	1	132	292.00	1
121	40	 F	1	1	0	2	0	13	0	231	447.91	1
121	40	 F	1	1	0	2	1	14	1	281	1448.29	1
121	40	 F	1	1	1	2	1	15	1	132	273.03	1
121	40	 F	1	1	1	2	1	16	1	132	234.22	1
121	40	 F	1	1	1	2	0	17	0	231	239.81	1
121	40	 F	1	1	0	2	0	18	0	231	292.43	1
121	40	 F	1	1	0	2	1	19	1	281	636.05	1
121	40	 F	1	1	1	2	0	20	0	231	251.63	1
121	40	 F	1	1	0	2	0	21	0	231	467.69	1
121	40	 F	1	1	0	2	1	22	1	132	287.64	1
121	40	 F	1	1	0	2	0	23	0	182	701.74	1
121	40	 F	1	1	1	2	0	24	0	231	244.36	1
121	40	 F	1	1	0	2	1	25	1	132	382.10	1
121	40	 F	1	1	0	2	1	26	1	132	283.74	1
121	40	 F	1	1	0	2	0	27	0	231	282.37	1
121	40	 F	1	1	0	2	0	28	0	231	279.64	1
121	40	 F	1	1	0	2	1	29	1	132	267.49	1
121	40	 F	1	1	0	2	1	30	1	132	275.44	1
121	40	 F	1	1	0	2	1	31	1	281	847.37	1
121	40	 F	1	1	0	2	0	32	0	182	424.26	1
121	40	 F	1	1	0	2	0	33	0	182	426.85	1
121	40	 F	1	1	1	2	0	34	0	231	252.81	1
121	40	 F	1	1	0	2	1	35	1	132	292.93	1
121	40	 F	1	0	0	2	0	36	1	281	680.21	1
121	40	 F	1	1	0	2	0	37	0	281	535.78	1
121	40	 F	1	0	0	2	0	38	1	182	1040.64	1
121	40	 F	1	0	0	2	1	39	0	231	1127.92	1
121	40	 F	1	1	0	2	1	40	1	182	607.79	1
121	40	 F	1	1	0	2	1	41	1	132	351.50	1
121	40	 F	1	1	1	2	1	42	1	132	256.14	1
121	40	 F	1	1	0	2	0	43	0	231	380.01	1
121	40	 F	1	1	0	2	0	44	0	182	770.63	1
121	40	 F	1	1	0	2	0	45	0	231	513.54	1
121	40	 F	1	1	0	2	0	46	0	231	452.30	1
121	40	 F	1	1	0	2	0	47	0	231	465.14	1
121	40	 F	1	1	0	2	0	48	0	182	481.03	1
121	40	 F	1	1	0	2	0	49	0	231	421.65	1
121	40	 F	1	1	0	2	1	50	1	132	307.87	1
121	40	 F	1	1	0	2	0	51	0	281	1186.28	1
121	40	 F	1	1	0	2	1	52	1	182	621.32	1
121	40	 F	1	1	0	2	1	53	1	132	260.05	1
121	40	 F	1	1	0	2	0	54	0	231	496.14	1
121	40	 F	1	1	0	2	0	55	0	281	567.08	1
121	40	 F	1	1	0	2	1	56	1	182	489.87	1
121	40	 F	1	1	0	2	1	57	1	281	579.62	1
121	40	 F	1	1	0	2	0	58	0	231	275.03	1
121	40	 F	1	1	0	2	1	59	1	182	599.45	1
121	40	 F	1	1	0	2	0	60	0	281	771.15	1
122	22	 F	1	1	1	2	1	1	1	281	450.29	1
122	22	 F	1	1	1	2	1	2	1	182	342.22	1
122	22	 F	1	1	0	2	1	3	1	281	390.46	1
122	22	 F	1	1	1	2	1	4	1	182	365.54	1
122	22	 F	1	1	0	2	0	5	0	182	417.08	1
122	22	 F	1	1	1	2	1	6	1	182	249.59	1
122	22	 F	1	1	0	2	0	7	0	231	290.02	1
122	22	 F	1	1	1	2	1	8	1	132	232.29	1
122	22	 F	1	1	1	2	0	9	0	231	242.04	1
122	22	 F	1	1	0	2	1	10	1	182	341.53	1
122	22	 F	1	1	1	2	0	11	0	231	205.74	1
122	22	 F	1	1	0	2	0	12	0	231	292.42	1
122	22	 F	1	1	0	2	0	13	0	231	246.32	1
122	22	 F	1	1	1	2	1	14	1	132	229.46	1
122	22	 F	1	1	0	2	1	15	1	182	517.36	1
122	22	 F	1	1	1	2	0	16	0	231	200.23	1
122	22	 F	1	1	0	2	1	17	1	132	480.65	1
122	22	 F	1	1	0	2	1	18	1	281	474.82	1
122	22	 F	1	1	0	2	0	19	0	231	226.12	1
122	22	 F	1	1	0	2	1	20	1	281	339.22	1
122	22	 F	1	1	0	2	1	21	1	132	229.37	1
122	22	 F	1	1	1	2	0	22	0	231	203.29	1
122	22	 F	1	1	0	2	1	23	1	132	317.37	1
122	22	 F	1	1	0	2	1	24	1	281	322.16	1
122	22	 F	1	1	0	2	1	25	1	132	261.07	1
122	22	 F	1	1	0	2	0	26	0	231	225.68	1
122	22	 F	1	1	1	2	1	27	1	132	195.15	1
122	22	 F	1	1	0	2	1	28	1	132	291.39	1
122	22	 F	1	1	0	2	1	29	1	132	240.29	1
122	22	 F	1	1	0	2	1	30	1	132	274.89	1
122	22	 F	1	1	1	2	1	31	1	132	182.87	1
122	22	 F	1	1	0	2	1	32	1	132	213.77	1
122	22	 F	1	1	0	2	0	33	0	182	424.03	1
122	22	 F	1	1	0	2	0	34	0	231	284.31	1
122	22	 F	1	1	0	2	0	35	0	182	231.07	1
122	22	 F	1	1	0	2	0	36	0	231	211.57	1
122	22	 F	1	1	0	2	0	37	0	231	243.10	1
122	22	 F	1	1	0	2	1	38	1	132	363.47	1
122	22	 F	1	1	0	2	0	39	0	182	232.15	1
122	22	 F	1	1	1	2	0	40	0	231	196.39	1
122	22	 F	1	1	0	2	0	41	0	231	463.49	1
122	22	 F	1	1	0	2	1	42	1	132	242.93	1
122	22	 F	1	1	1	2	1	43	1	132	197.22	1
122	22	 F	1	1	0	2	1	44	1	132	211.79	1
122	22	 F	1	1	0	2	0	45	0	281	253.76	1
122	22	 F	1	1	0	2	0	46	0	231	167598.59	1
122	22	 F	1	1	0	2	0	47	0	231	330.65	1
122	22	 F	1	1	0	2	0	48	0	281	436.45	1
122	22	 F	1	1	0	2	1	49	1	132	657.28	1
122	22	 F	1	1	0	2	0	50	0	231	216.97	1
122	22	 F	1	1	0	2	0	51	0	182	277.08	1
122	22	 F	1	1	1	2	0	52	0	231	183.55	1
122	22	 F	1	1	0	2	1	53	1	132	279.59	1
122	22	 F	1	1	0	2	0	54	0	231	305.48	1
122	22	 F	1	1	0	2	0	55	0	281	442.66	1
122	22	 F	1	1	0	2	0	56	0	231	261.21	1
122	22	 F	1	1	0	2	1	57	1	132	244.06	1
122	22	 F	1	1	0	2	0	58	0	281	479.53	1
122	22	 F	1	1	0	2	1	59	1	132	245.40	1
122	22	 F	1	1	0	2	0	60	0	281	287.64	1
138	21	 F	1	1	1	2	0	1	0	231	1022.15	1
138	21	 F	1	1	1	2	1	2	1	132	474.07	1
138	21	 F	1	1	0	2	1	3	1	281	577.31	1
138	21	 F	1	1	0	2	1	4	1	132	1611.55	1
138	21	 F	1	1	1	2	0	5	0	231	288.06	1
138	21	 F	1	1	0	2	1	6	1	182	491.25	1
138	21	 F	1	1	0	2	1	7	1	132	439.11	1
138	21	 F	1	1	1	2	0	8	0	231	239.82	1
138	21	 F	1	1	1	2	1	9	1	132	210.81	1
138	21	 F	1	1	0	2	1	10	1	182	329.46	1
138	21	 F	1	1	0	2	0	11	0	182	315.86	1
138	21	 F	1	1	0	2	1	12	1	132	284.20	1
138	21	 F	1	1	0	2	0	13	0	231	271.57	1
138	21	 F	1	1	0	2	0	14	0	182	454.59	1
138	21	 F	1	1	0	2	0	15	0	231	310.27	1
138	21	 F	1	1	0	2	1	16	1	132	351.46	1
138	21	 F	1	1	1	2	0	17	0	182	222.15	1
138	21	 F	1	1	1	2	1	18	1	281	221.81	1
138	21	 F	1	1	0	2	0	19	0	231	332.42	1
138	21	 F	1	1	1	2	0	20	0	231	205.82	1
138	21	 F	1	1	1	2	0	21	0	231	207.53	1
138	21	 F	1	1	0	2	0	22	0	231	306.72	1
138	21	 F	1	0	0	2	0	23	0	231	248.81	1
138	21	 F	1	1	0	2	0	24	0	231	430.71	1
138	21	 F	1	1	0	2	1	25	1	281	277.81	1
138	21	 F	1	0	0	2	0	26	1	132	855.15	1
138	21	 F	1	1	0	2	0	27	0	231	278.11	1
138	21	 F	1	0	0	2	0	28	1	281	295.53	1
138	21	 F	1	0	0	2	0	29	1	132	851.01	1
138	21	 F	1	1	1	2	0	30	0	281	221.62	1
138	21	 F	1	1	0	2	0	31	0	231	270.67	1
138	21	 F	1	1	0	2	1	32	1	132	238.04	1
138	21	 F	1	1	0	2	1	33	1	132	630.70	1
138	21	 F	1	1	0	2	1	34	1	281	308.50	1
138	21	 F	1	1	0	2	0	35	0	281	642.98	1
138	21	 F	1	1	0	2	0	36	0	182	337.62	1
138	21	 F	1	1	0	2	1	37	1	132	387.34	1
138	21	 F	1	1	0	2	1	38	1	182	474.96	1
138	21	 F	1	1	0	2	1	39	1	132	279.14	1
138	21	 F	1	1	0	2	1	40	1	132	301.78	1
138	21	 F	1	1	1	2	0	41	0	231	219.58	1
138	21	 F	1	1	0	2	1	42	1	132	449.98	1
138	21	 F	1	1	0	2	1	43	1	132	470.81	1
138	21	 F	1	0	0	2	0	44	1	132	526.35	1
138	21	 F	1	1	0	2	1	45	1	182	457.35	1
138	21	 F	1	1	1	2	0	46	0	281	227.73	1
138	21	 F	1	1	1	2	1	47	1	132	201.48	1
138	21	 F	1	1	1	2	0	48	0	182	215.33	1
138	21	 F	1	1	0	2	0	49	0	231	743.96	1
138	21	 F	1	0	0	2	0	50	0	231	295.45	1
138	21	 F	1	1	0	2	0	51	0	231	291.65	1
138	21	 F	1	1	0	2	1	52	1	132	366.75	1
138	21	 F	1	1	0	2	0	53	0	231	333.58	1
138	21	 F	1	1	0	2	0	54	0	281	305.92	1
138	21	 F	1	1	0	2	1	55	1	132	418.20	1
138	21	 F	1	0	0	2	0	56	0	231	440.87	1
138	21	 F	1	1	0	2	1	57	1	132	714.31	1
138	21	 F	1	1	1	2	0	58	0	231	221.77	1
138	21	 F	1	1	0	2	1	59	1	182	367.72	1
138	21	 F	1	1	0	2	0	60	0	281	406.64	1
139	22	 F	1	1	1	2	0	1	0	231	846.28	1
139	22	 F	1	1	1	2	1	2	1	132	327.87	1
139	22	 F	1	1	0	2	0	3	0	231	365.31	1
139	22	 F	1	1	1	2	1	4	1	132	250.60	1
139	22	 F	1	1	1	2	1	5	1	132	214.37	1
139	22	 F	1	1	1	2	1	6	1	132	193.56	1
139	22	 F	1	0	0	2	0	7	1	281	486.79	1
139	22	 F	1	1	1	2	0	8	0	231	188.32	1
139	22	 F	1	1	0	2	0	9	0	182	789.25	1
139	22	 F	1	1	0	2	1	10	1	132	217.88	1
139	22	 F	1	1	1	2	1	11	1	132	209.04	1
139	22	 F	1	1	0	2	1	12	1	132	217.68	1
139	22	 F	1	1	0	2	0	13	0	231	227.35	1
139	22	 F	1	1	0	2	0	14	0	281	411.79	1
139	22	 F	1	1	1	2	1	15	1	132	195.78	1
139	22	 F	1	1	0	2	1	16	1	132	320.70	1
139	22	 F	1	1	0	2	1	17	1	182	679.02	1
139	22	 F	1	1	0	2	1	18	1	132	332.48	1
139	22	 F	1	1	0	2	1	19	1	281	448.94	1
139	22	 F	1	1	0	2	1	20	1	182	1228.68	1
139	22	 F	1	1	0	2	1	21	1	132	690.37	1
139	22	 F	1	1	0	2	0	22	0	182	270.73	1
139	22	 F	1	1	0	2	0	23	0	281	418.47	1
139	22	 F	1	1	0	2	0	24	0	231	497.22	1
139	22	 F	1	1	0	2	1	25	1	132	285.61	1
139	22	 F	1	1	1	2	1	26	1	132	180.15	1
139	22	 F	1	1	0	2	0	27	0	182	329.07	1
139	22	 F	1	1	0	2	1	28	1	182	511.62	1
139	22	 F	1	1	0	2	0	29	0	231	549.82	1
139	22	 F	1	1	0	2	0	30	0	182	373.38	1
139	22	 F	1	1	0	2	1	31	1	281	493.15	1
139	22	 F	1	1	0	2	0	32	0	231	835.21	1
139	22	 F	1	1	0	2	0	33	0	231	577.96	1
139	22	 F	1	1	0	2	1	34	1	132	252.69	1
139	22	 F	1	1	0	2	0	35	0	231	565.41	1
139	22	 F	1	1	0	2	1	36	1	281	608.41	1
139	22	 F	1	1	0	2	1	37	1	132	298.22	1
139	22	 F	1	1	0	2	0	38	0	231	510.98	1
139	22	 F	1	1	0	2	0	39	0	231	555.59	1
139	22	 F	1	1	0	2	0	40	0	231	664.38	1
139	22	 F	1	1	0	2	0	41	0	281	598.56	1
139	22	 F	1	1	0	2	1	42	1	132	283.45	1
139	22	 F	1	1	0	2	1	43	1	132	414.16	1
139	22	 F	1	1	0	2	0	44	0	231	987.58	1
139	22	 F	1	1	0	2	1	45	1	132	396.12	1
139	22	 F	1	1	0	2	0	46	0	281	643.53	1
139	22	 F	1	1	0	2	0	47	0	231	563.12	1
139	22	 F	1	1	0	2	1	48	1	132	223.58	1
139	22	 F	1	1	0	2	0	49	0	231	225.62	1
139	22	 F	1	1	0	2	0	50	0	231	347.88	1
139	22	 F	1	1	0	2	1	51	1	182	490.44	1
139	22	 F	1	1	0	2	0	52	0	231	850.09	1
139	22	 F	1	1	1	2	0	53	0	231	196.38	1
139	22	 F	1	1	0	2	1	54	1	182	303.28	1
139	22	 F	1	1	0	2	0	55	0	281	529.37	1
139	22	 F	1	1	0	2	0	56	0	182	500.80	1
139	22	 F	1	0	0	2	0	57	0	231	534.62	1
139	22	 F	1	1	0	2	0	58	0	231	646.10	1
139	22	 F	1	1	1	2	1	59	1	132	183.23	1
139	22	 F	1	1	0	2	1	60	1	281	673.27	1
110	21	 M	0	1	1	2	1	1	1	132	1123.22	1
110	21	 M	0	1	1	2	1	2	1	132	273.98	1
110	21	 M	0	1	1	2	1	3	1	132	260.07	1
110	21	 M	0	1	0	2	0	4	0	231	413.53	1
110	21	 M	0	1	1	2	1	5	1	132	230.12	1
110	21	 M	0	1	0	2	0	6	0	231	322.84	1
110	21	 M	0	1	0	2	0	7	0	182	426.66	1
110	21	 M	0	1	1	2	1	8	1	132	216.02	1
110	21	 M	0	1	0	2	1	9	1	132	277.37	1
110	21	 M	0	1	0	2	1	10	1	281	490.47	1
110	21	 M	0	1	0	2	0	11	0	281	327.30	1
110	21	 M	0	1	0	2	0	12	0	231	294.78	1
110	21	 M	0	1	1	2	1	13	1	132	197.79	1
110	21	 M	0	1	1	2	0	14	0	231	202.89	1
110	21	 M	0	1	0	2	0	15	0	281	382.07	1
110	21	 M	0	1	1	2	1	16	1	132	219.42	1
110	21	 M	0	1	0	2	1	17	1	182	253.12	1
110	21	 M	0	1	1	2	1	18	1	132	221.49	1
110	21	 M	0	0	0	2	0	19	1	281	220.90	1
110	21	 M	0	1	0	2	1	20	1	182	612.55	1
110	21	 M	0	1	0	2	0	21	0	231	284.80	1
110	21	 M	0	1	1	2	1	22	1	132	191.37	1
110	21	 M	0	1	0	2	1	23	1	132	272.96	1
110	21	 M	0	1	1	2	1	24	1	132	209.68	1
110	21	 M	0	1	0	2	1	25	1	132	222.62	1
110	21	 M	0	1	0	2	0	26	0	231	273.38	1
110	21	 M	0	1	0	2	1	27	1	281	496.36	1
110	21	 M	0	1	0	2	1	28	1	132	222.90	1
110	21	 M	0	1	0	2	0	29	0	182	372.96	1
110	21	 M	0	1	0	2	0	30	0	231	220.48	1
110	21	 M	0	1	0	2	0	31	0	281	401.23	1
110	21	 M	0	1	0	2	1	32	1	132	218.07	1
110	21	 M	0	1	0	2	1	33	1	132	314.55	1
110	21	 M	0	1	1	2	0	34	0	231	153.23	1
110	21	 M	0	1	0	2	0	35	0	231	292.27	1
110	21	 M	0	1	0	2	0	36	0	231	343.84	1
110	21	 M	0	1	0	2	0	37	0	231	290.80	1
110	21	 M	0	1	0	2	1	38	1	281	367.64	1
110	21	 M	0	1	0	2	0	39	0	231	268.21	1
110	21	 M	0	1	0	2	1	40	1	132	225.59	1
110	21	 M	0	1	0	2	1	41	1	281	385.96	1
110	21	 M	0	1	0	2	0	42	0	231	216.30	1
110	21	 M	0	1	0	2	0	43	0	281	483.16	1
110	21	 M	0	1	0	2	0	44	0	182	423.79	1
110	21	 M	0	1	0	2	0	45	0	231	355.94	1
110	21	 M	0	1	0	2	0	46	0	231	249.49	1
110	21	 M	0	1	0	2	1	47	1	132	188.07	1
110	21	 M	0	1	0	2	1	48	1	182	308.42	1
110	21	 M	0	1	0	2	1	49	1	182	347.03	1
110	21	 M	0	1	0	2	1	50	1	132	290.30	1
110	21	 M	0	1	0	2	0	51	0	231	245.46	1
110	21	 M	0	1	0	2	0	52	0	231	245.16	1
110	21	 M	0	1	0	2	0	53	0	182	374.96	1
110	21	 M	0	1	0	2	0	54	0	281	425.36	1
110	21	 M	0	1	0	2	0	55	0	231	299.94	1
110	21	 M	0	1	0	2	0	56	0	182	350.99	1
110	21	 M	0	1	1	2	1	57	1	132	23.14	1
110	21	 M	0	1	0	2	0	58	0	231	225.54	1
110	21	 M	0	1	0	2	1	59	1	182	409.89	1
110	21	 M	0	1	0	2	0	60	0	231	249.33	1
111	22	 M	0	1	1	2	0	1	0	231	439.85	1
111	22	 M	0	1	1	2	1	2	1	132	241.64	1
111	22	 M	0	1	0	2	1	3	1	182	277.85	1
111	22	 M	0	1	0	2	1	4	1	281	390.64	1
111	22	 M	0	0	0	2	0	5	0	231	252.70	1
111	22	 M	0	1	0	2	0	6	0	281	446.27	1
111	22	 M	0	1	0	2	0	7	0	231	310.49	1
111	22	 M	0	1	1	2	0	8	0	231	236.09	1
111	22	 M	0	1	1	2	0	9	0	231	224.89	1
111	22	 M	0	1	0	2	0	10	0	182	257.91	1
111	22	 M	0	1	1	2	1	11	1	132	228.35	1
111	22	 M	0	1	1	2	1	12	1	132	234.87	1
111	22	 M	0	1	0	2	0	13	0	231	269.46	1
111	22	 M	0	0	0	2	0	14	1	182	530.88	1
111	22	 M	0	1	0	2	1	15	1	281	348.32	1
111	22	 M	0	1	1	2	0	16	0	182	229.76	1
111	22	 M	0	1	0	2	1	17	1	132	268.22	1
111	22	 M	0	1	1	2	0	18	0	231	227.57	1
111	22	 M	0	1	1	2	0	19	0	231	206.97	1
111	22	 M	0	1	1	2	1	20	1	132	206.93	1
111	22	 M	0	1	1	2	1	21	1	132	202.56	1
111	22	 M	0	1	0	2	1	22	1	132	239.10	1
111	22	 M	0	1	0	2	1	23	1	281	357.56	1
111	22	 M	0	1	0	2	0	24	0	281	234.98	1
111	22	 M	0	1	1	2	0	25	0	231	213.77	1
111	22	 M	0	0	0	2	1	26	0	231	212.91	1
111	22	 M	0	1	1	2	1	27	1	132	219.13	1
111	22	 M	0	1	0	2	0	28	0	281	366.15	1
111	22	 M	0	1	1	2	1	29	1	132	207.40	1
111	22	 M	0	1	1	2	0	30	0	231	210.76	1
111	22	 M	0	1	1	2	0	31	0	231	214.60	1
111	22	 M	0	1	1	2	1	32	1	132	204.28	1
111	22	 M	0	1	0	2	1	33	1	182	368.37	1
111	22	 M	0	1	1	2	0	34	0	182	222.76	1
111	22	 M	0	1	0	2	0	35	0	231	258.41	1
111	22	 M	0	1	1	2	1	36	1	132	218.74	1
111	22	 M	0	1	0	2	1	37	1	132	231.65	1
111	22	 M	0	1	0	2	1	38	1	132	228.94	1
111	22	 M	0	1	0	2	0	39	0	231	257.53	1
111	22	 M	0	1	1	2	1	40	1	132	226.49	1
111	22	 M	0	1	1	2	1	41	1	132	225.57	1
111	22	 M	0	1	0	2	0	42	0	281	248.65	1
111	22	 M	0	1	0	2	0	43	0	182	307.97	1
111	22	 M	0	1	0	2	0	44	0	182	358.55	1
111	22	 M	0	1	1	2	1	45	1	132	198.97	1
111	22	 M	0	1	1	2	1	46	1	132	219.98	1
111	22	 M	0	1	1	2	0	47	0	231	198.52	1
111	22	 M	0	1	0	2	1	48	1	182	239.83	1
111	22	 M	0	1	0	2	1	49	1	281	300.36	1
111	22	 M	0	1	0	2	1	50	1	182	314.73	1
111	22	 M	0	1	0	2	0	51	0	281	256.38	1
111	22	 M	0	1	1	2	1	52	1	132	211.40	1
111	22	 M	0	1	1	2	0	53	0	231	199.34	1
111	22	 M	0	1	0	2	0	54	0	231	231.66	1
111	22	 M	0	1	0	2	0	55	0	231	234.58	1
111	22	 M	0	1	1	2	0	56	0	231	202.20	1
111	22	 M	0	1	0	2	0	57	0	231	241.63	1
111	22	 M	0	1	1	2	1	58	1	132	204.68	1
111	22	 M	0	1	0	2	1	59	1	281	360.85	1
111	22	 M	0	1	1	2	1	60	1	132	206.09	1
112	21	 M	0	1	1	2	0	1	0	231	669.84	1
112	21	 M	0	1	1	2	0	2	0	231	489.57	1
112	21	 M	0	1	0	2	0	3	0	182	541.57	1
112	21	 M	0	1	1	2	0	4	0	231	250.69	1
112	21	 M	0	1	1	2	1	5	1	132	234.68	1
112	21	 M	0	1	0	2	0	6	0	281	364.70	1
112	21	 M	0	1	0	2	1	7	1	182	395.08	1
112	21	 M	0	1	1	2	1	8	1	132	219.76	1
112	21	 M	0	1	1	2	1	9	1	132	226.38	1
112	21	 M	0	1	1	2	1	10	1	132	222.72	1
112	21	 M	0	1	0	2	0	11	0	231	278.18	1
112	21	 M	0	1	0	2	0	12	0	231	254.33	1
112	21	 M	0	1	0	2	1	13	1	182	607.13	1
112	21	 M	0	1	1	2	0	14	0	231	212.13	1
112	21	 M	0	1	0	2	0	15	0	281	518.31	1
112	21	 M	0	1	0	2	0	16	0	231	352.74	1
112	21	 M	0	1	0	2	0	17	0	182	435.43	1
112	21	 M	0	1	0	2	0	18	0	231	487.43	1
112	21	 M	0	1	1	2	1	19	1	132	192.95	1
112	21	 M	0	1	1	2	1	20	1	132	213.68	1
112	21	 M	0	1	1	2	1	21	1	132	189.15	1
112	21	 M	0	1	0	2	1	22	1	132	232.89	1
112	21	 M	0	1	0	2	1	23	1	281	490.86	1
112	21	 M	0	1	1	2	1	24	1	132	209.50	1
112	21	 M	0	1	0	2	0	25	0	281	298.54	1
112	21	 M	0	1	0	2	1	26	1	132	215.40	1
112	21	 M	0	1	0	2	1	27	1	182	434.24	1
112	21	 M	0	0	0	2	0	28	1	281	1363.88	1
112	21	 M	0	1	0	2	0	29	0	231	630.80	1
112	21	 M	0	1	0	2	1	30	1	132	296.55	1
112	21	 M	0	1	0	2	1	31	1	281	501.48	1
112	21	 M	0	1	0	2	0	32	0	231	239.59	1
112	21	 M	0	1	0	2	0	33	0	182	515.51	1
112	21	 M	0	1	0	2	0	34	0	281	660.88	1
112	21	 M	0	0	0	2	0	35	1	182	473.28	1
112	21	 M	0	1	0	2	0	36	0	281	620.83	1
112	21	 M	0	1	0	2	1	37	1	132	422.32	1
112	21	 M	0	1	0	2	0	38	0	182	574.66	1
112	21	 M	0	1	0	2	1	39	1	132	274.63	1
112	21	 M	0	1	0	2	0	40	0	231	218.41	1
112	21	 M	0	1	0	2	0	41	0	231	340.13	1
112	21	 M	0	1	0	2	1	42	1	132	272.46	1
112	21	 M	0	1	1	2	0	43	0	231	206.09	1
112	21	 M	0	1	0	2	0	44	0	231	57610.46	1
112	21	 M	0	1	0	2	1	45	1	132	500.10	1
112	21	 M	0	1	0	2	0	46	0	231	228.14	1
112	21	 M	0	1	0	2	1	47	1	132	231.76	1
112	21	 M	0	1	0	2	0	48	0	182	517.69	1
112	21	 M	0	1	0	2	1	49	1	132	285.08	1
112	21	 M	0	1	0	2	0	50	0	231	250.79	1
112	21	 M	0	1	0	2	0	51	0	231	259.49	1
112	21	 M	0	1	0	2	0	52	0	231	228.75	1
112	21	 M	0	1	0	2	1	53	1	281	550.09	1
112	21	 M	0	1	0	2	1	54	1	132	239.66	1
112	21	 M	0	1	0	2	1	55	1	182	537.58	1
112	21	 M	0	1	0	2	1	56	1	132	229.17	1
112	21	 M	0	1	0	2	1	57	1	281	536.16	1
112	21	 M	0	1	0	2	0	58	0	231	379.69	1
112	21	 M	0	1	0	2	0	59	0	231	257.43	1
112	21	 M	0	1	0	2	1	60	1	132	222.18	1
116	22	 M	0	1	1	2	1	1	1	132	545.58	1
116	22	 M	0	1	1	2	1	2	1	281	517.93	1
116	22	 M	0	1	1	2	0	3	0	281	339.46	1
116	22	 M	0	1	1	2	0	4	0	231	220.89	1
116	22	 M	0	1	0	2	1	5	1	132	246.30	1
116	22	 M	0	1	0	2	0	6	0	231	260.79	1
116	22	 M	0	1	0	2	1	7	1	132	275.02	1
116	22	 M	0	1	0	2	0	8	0	231	281.26	1
116	22	 M	0	1	0	2	0	9	0	231	261.98	1
116	22	 M	0	1	0	2	0	10	0	231	253.94	1
116	22	 M	0	1	0	2	0	11	0	231	298.59	1
116	22	 M	0	1	0	2	1	12	1	281	406.20	1
116	22	 M	0	1	1	2	1	13	1	132	218.85	1
116	22	 M	0	1	0	2	0	14	0	231	351.22	1
116	22	 M	0	1	1	2	1	15	1	132	211.46	1
116	22	 M	0	1	0	2	1	16	1	182	358.26	1
116	22	 M	0	1	0	2	0	17	0	182	331.20	1
116	22	 M	0	1	0	2	0	18	0	281	267.32	1
116	22	 M	0	1	1	2	1	19	1	132	218.40	1
116	22	 M	0	1	0	2	0	20	0	231	241.15	1
116	22	 M	0	1	0	2	0	21	0	231	248.53	1
116	22	 M	0	1	0	2	0	22	0	231	250.32	1
116	22	 M	0	1	0	2	0	23	0	281	294.76	1
116	22	 M	0	1	0	2	0	24	0	182	344.69	1
116	22	 M	0	1	0	2	1	25	1	132	289.33	1
116	22	 M	0	1	0	2	0	26	0	231	265.62	1
116	22	 M	0	1	0	2	0	27	0	231	238.54	1
116	22	 M	0	1	0	2	1	28	1	182	419.46	1
116	22	 M	0	1	0	2	1	29	1	132	242.47	1
116	22	 M	0	1	0	2	1	30	1	281	478.17	1
116	22	 M	0	1	1	2	0	31	0	231	216.88	1
116	22	 M	0	1	1	2	1	32	1	132	213.90	1
116	22	 M	0	1	1	2	1	33	1	132	206.38	1
116	22	 M	0	1	0	2	1	34	1	182	365.05	1
116	22	 M	0	0	0	2	0	35	0	182	393.00	1
116	22	 M	0	1	0	2	1	36	1	281	346.51	1
116	22	 M	0	1	1	2	0	37	0	231	194.90	1
116	22	 M	0	1	0	2	1	38	1	132	235.71	1
116	22	 M	0	1	0	2	0	39	0	281	281.34	1
116	22	 M	0	1	0	2	1	40	1	132	237.04	1
116	22	 M	0	1	0	2	0	41	0	182	287.95	1
116	22	 M	0	1	0	2	0	42	0	182	391.85	1
116	22	 M	0	1	1	2	1	43	1	132	204.17	1
116	22	 M	0	1	0	2	0	44	0	231	244.89	1
116	22	 M	0	1	0	2	0	45	0	231	245.54	1
116	22	 M	0	1	0	2	1	46	1	132	228.13	1
116	22	 M	0	1	0	2	0	47	0	231	250.84	1
116	22	 M	0	1	0	2	1	48	1	132	330.32	1
116	22	 M	0	1	0	2	1	49	1	281	374.90	1
116	22	 M	0	1	0	2	1	50	1	132	227.96	1
116	22	 M	0	1	0	2	1	51	1	182	348.85	1
116	22	 M	0	1	0	2	1	52	1	132	221.76	1
116	22	 M	0	1	0	2	1	53	1	132	254.64	1
116	22	 M	0	1	1	2	1	54	1	132	210.89	1
116	22	 M	0	1	1	2	0	55	0	231	191.78	1
116	22	 M	0	1	0	2	1	56	1	132	360.61	1
116	22	 M	0	1	1	2	0	57	0	231	215.94	1
116	22	 M	0	1	0	2	0	58	0	231	382.55	1
116	22	 M	0	1	0	2	1	59	1	182	340.54	1
116	22	 M	0	1	0	2	0	60	0	281	365.82	1
117	21	 M	0	1	1	2	0	1	0	182	1376.42	1
117	21	 M	0	1	1	2	0	2	0	231	664.70	1
117	21	 M	0	1	1	2	1	3	1	132	379.89	1
117	21	 M	0	1	1	2	0	4	0	231	217.82	1
117	21	 M	0	1	0	2	1	5	1	281	472.94	1
117	21	 M	0	0	0	2	0	6	1	132	336.21	1
117	21	 M	0	1	0	2	1	7	1	132	298.31	1
117	21	 M	0	1	0	2	0	8	0	231	315.67	1
117	21	 M	0	1	0	2	1	9	1	132	257.06	1
117	21	 M	0	1	0	2	0	10	0	231	260.65	1
117	21	 M	0	1	0	2	0	11	0	182	360.24	1
117	21	 M	0	1	1	2	1	12	1	132	236.03	1
117	21	 M	0	1	1	2	0	13	0	231	237.39	1
117	21	 M	0	1	0	2	1	14	1	281	364.04	1
117	21	 M	0	1	0	2	1	15	1	132	244.61	1
117	21	 M	0	1	0	2	0	16	0	231	347.23	1
117	21	 M	0	1	1	2	1	17	1	132	242.33	1
117	21	 M	0	1	0	2	0	18	0	182	339.50	1
117	21	 M	0	1	0	2	0	19	0	281	552.86	1
117	21	 M	0	1	0	2	0	20	0	231	279.89	1
117	21	 M	0	1	1	2	0	21	0	231	208.23	1
117	21	 M	0	1	0	2	0	22	0	231	293.17	1
117	21	 M	0	1	0	2	1	23	1	132	261.72	1
117	21	 M	0	1	0	2	1	24	1	132	294.62	1
117	21	 M	0	1	0	2	1	25	1	281	360.41	1
117	21	 M	0	1	1	2	0	26	0	231	228.08	1
117	21	 M	0	1	0	2	0	27	0	231	276.25	1
117	21	 M	0	1	0	2	1	28	1	132	266.79	1
117	21	 M	0	1	1	2	0	29	0	231	185.13	1
117	21	 M	0	1	0	2	1	30	1	132	311.20	1
117	21	 M	0	1	0	2	1	31	1	132	217.11	1
117	21	 M	0	1	0	2	1	32	1	132	217.65	1
117	21	 M	0	1	0	2	0	33	0	281	367.90	1
117	21	 M	0	1	0	2	0	34	0	182	365.06	1
117	21	 M	0	1	0	2	0	35	0	281	326.27	1
117	21	 M	0	1	0	2	1	36	1	132	267.05	1
117	21	 M	0	1	0	2	1	37	1	281	243.80	1
117	21	 M	0	1	1	2	0	38	0	231	209.80	1
117	21	 M	0	0	0	2	0	39	1	182	647.02	1
117	21	 M	0	1	0	2	1	40	1	132	288.49	1
117	21	 M	0	1	0	2	1	41	1	281	554.81	1
117	21	 M	0	1	1	2	0	42	0	231	207.29	1
117	21	 M	0	1	0	2	0	43	0	281	315.53	1
117	21	 M	0	1	0	2	0	44	0	231	223.03	1
117	21	 M	0	1	0	2	0	45	0	231	266.58	1
117	21	 M	0	1	0	2	1	46	1	182	430.67	1
117	21	 M	0	1	0	2	1	47	1	132	240.83	1
117	21	 M	0	1	0	2	1	48	1	132	242.15	1
117	21	 M	0	1	0	2	0	49	0	231	241.05	1
117	21	 M	0	1	0	2	0	50	0	231	235.01	1
117	21	 M	0	1	0	2	1	51	1	182	325.53	1
117	21	 M	0	1	0	2	1	52	1	182	327.68	1
117	21	 M	0	1	0	2	0	53	0	182	312.35	1
117	21	 M	0	1	1	2	0	54	0	231	206.91	1
117	21	 M	0	1	0	2	1	55	1	132	281.13	1
117	21	 M	0	1	0	2	1	56	1	182	575.09	1
117	21	 M	0	1	0	2	0	57	0	281	384.05	1
117	21	 M	0	1	0	2	1	58	1	132	211.30	1
117	21	 M	0	1	0	2	1	59	1	132	235.46	1
117	21	 M	0	1	0	2	0	60	0	231	290.97	1
118	21	 M	0	1	1	2	0	1	0	231	7589.16	1
118	21	 M	0	1	1	2	1	2	1	182	419.17	1
118	21	 M	0	1	0	2	1	3	1	132	1099.68	1
118	21	 M	0	1	0	2	0	4	0	182	1721.15	1
118	21	 M	0	1	0	2	0	5	0	231	547.68	1
118	21	 M	0	1	0	2	1	6	1	182	1397.08	1
118	21	 M	0	1	0	2	0	7	0	231	1799.29	1
118	21	 M	0	1	0	2	1	8	1	281	845.62	1
118	21	 M	0	1	0	2	1	9	1	132	590.51	1
118	21	 M	0	1	1	2	1	10	1	132	197.39	1
118	21	 M	0	1	1	2	1	11	1	132	212.89	1
118	21	 M	0	1	0	2	0	12	0	231	235.45	1
118	21	 M	0	1	0	2	1	13	1	281	375.15	1
118	21	 M	0	1	0	2	0	14	0	231	267.41	1
118	21	 M	0	1	1	2	1	15	1	132	217.12	1
118	21	 M	0	1	0	2	0	16	0	182	406.62	1
118	21	 M	0	1	1	2	0	17	0	231	217.08	1
118	21	 M	0	1	1	2	1	18	1	132	210.52	1
118	21	 M	0	0	0	2	0	19	0	231	251.68	1
118	21	 M	0	1	1	2	1	20	1	132	37.76	1
118	21	 M	0	1	0	2	1	21	1	132	15129.53	1
118	21	 M	0	0	0	2	0	22	0	231	201.27	1
118	21	 M	0	1	0	2	1	23	1	132	313.39	1
118	21	 M	0	1	0	2	0	24	0	231	217.66	1
118	21	 M	0	0	0	2	0	25	0	231	209.35	1
118	21	 M	0	1	0	2	0	26	0	231	11863.25	1
118	21	 M	0	1	0	2	0	27	0	231	562.44	1
118	21	 M	0	1	0	2	1	28	1	132	189.10	1
118	21	 M	0	1	0	2	1	29	1	132	19468.49	1
118	21	 M	0	1	0	2	0	30	0	231	226.53	1
118	21	 M	0	1	0	2	1	31	1	132	248.10	1
118	21	 M	0	1	0	2	0	32	0	281	306.12	1
118	21	 M	0	1	0	2	0	33	0	231	147.91	1
118	21	 M	0	1	0	2	1	34	1	132	508.13	1
118	21	 M	0	1	0	2	1	35	1	281	277.79	1
118	21	 M	0	1	0	2	1	36	1	132	201.08	1
118	21	 M	0	1	0	2	1	37	1	132	253.76	1
118	21	 M	0	1	0	2	1	38	1	182	441.01	1
118	21	 M	0	1	0	2	1	39	1	132	206.89	1
118	21	 M	0	1	0	2	0	40	0	231	213.71	1
118	21	 M	0	1	0	2	0	41	0	281	434.56	1
118	21	 M	0	1	0	2	1	42	1	132	194.29	1
118	21	 M	0	1	0	2	0	43	0	182	346.89	1
118	21	 M	0	1	0	2	1	44	1	132	196.35	1
118	21	 M	0	1	0	2	0	45	0	281	266.74	1
118	21	 M	0	1	0	2	1	46	1	281	314.87	1
118	21	 M	0	1	0	2	1	47	1	132	232.79	1
118	21	 M	0	1	1	2	0	48	0	231	24.82	1
118	21	 M	0	1	0	2	0	49	0	281	371.44	1
118	21	 M	0	1	0	2	0	50	0	231	186.22	1
118	21	 M	0	1	1	2	1	51	1	132	38.73	1
118	21	 M	0	1	0	2	0	52	0	182	524.77	1
118	21	 M	0	1	0	2	1	53	1	182	297.91	1
118	21	 M	0	1	0	2	1	54	1	182	261.75	1
118	21	 M	0	1	0	2	0	55	0	231	15778.39	1
118	21	 M	0	1	0	2	0	56	0	231	517.17	1
118	21	 M	0	1	0	2	0	57	0	231	168.74	1
118	21	 M	0	1	0	2	0	58	0	281	397.68	1
118	21	 M	0	1	0	2	1	59	1	281	247.18	1
118	21	 M	0	1	0	2	0	60	0	182	479.38	1
123	21	 F	1	1	1	2	1	1	0	132	577.21	0
123	21	 F	1	1	1	2	1	2	0	132	450.21	0
123	21	 F	1	1	1	2	1	3	0	132	268.64	0
123	21	 F	1	1	1	2	0	4	1	231	237.59	0
123	21	 F	1	1	0	2	0	5	1	182	326.56	0
123	21	 F	1	1	1	2	1	6	0	132	230.33	0
123	21	 F	1	1	1	2	1	7	0	132	241.98	0
123	21	 F	1	1	1	2	1	8	0	132	245.45	0
123	21	 F	1	1	1	2	0	9	1	231	236.70	0
123	21	 F	1	1	1	2	1	10	0	132	225.73	0
123	21	 F	1	1	1	2	0	11	1	281	241.35	0
123	21	 F	1	1	1	2	0	12	1	231	243.39	0
123	21	 F	1	1	0	2	0	13	1	281	430.93	0
123	21	 F	1	1	1	2	1	14	0	132	222.10	0
123	21	 F	1	1	0	2	0	15	1	182	442.30	0
123	21	 F	1	1	1	2	1	16	0	132	217.56	0
123	21	 F	1	1	1	2	0	17	1	231	232.94	0
123	21	 F	1	1	0	2	0	18	1	231	244.66	0
123	21	 F	1	1	0	2	0	19	1	281	254.89	0
123	21	 F	1	1	0	2	1	20	0	132	452.25	0
123	21	 F	1	1	0	2	1	21	0	281	271.69	0
123	21	 F	1	1	0	2	0	22	1	231	296.44	0
123	21	 F	1	1	0	2	1	23	0	281	371.68	0
123	21	 F	1	1	1	2	0	24	1	231	235.52	0
123	21	 F	1	1	0	2	0	25	1	231	263.37	0
123	21	 F	1	1	1	2	1	26	0	132	233.30	0
123	21	 F	1	1	1	2	1	27	0	132	201.22	0
123	21	 F	1	1	0	2	1	28	0	132	314.89	0
123	21	 F	1	1	0	2	0	29	1	182	271.93	0
123	21	 F	1	1	1	2	1	30	0	132	217.93	0
123	21	 F	1	1	0	2	0	31	1	231	232.24	0
123	21	 F	1	1	0	2	1	32	0	132	273.03	0
123	21	 F	1	1	0	2	1	33	0	182	515.04	0
123	21	 F	1	1	1	2	0	34	1	231	214.17	0
123	21	 F	1	1	0	2	0	35	1	231	401.72	0
123	21	 F	1	1	0	2	0	36	1	281	398.13	0
123	21	 F	1	1	0	2	0	37	1	231	249.57	0
123	21	 F	1	1	0	2	1	38	0	132	267.38	0
123	21	 F	1	1	0	2	1	39	0	132	239.11	0
123	21	 F	1	1	0	2	0	40	1	231	241.85	0
123	21	 F	1	1	1	2	1	41	0	132	216.11	0
123	21	 F	1	1	0	2	0	42	1	231	289.72	0
123	21	 F	1	1	0	2	1	43	0	182	613.92	0
123	21	 F	1	1	0	2	1	44	0	132	318.10	0
123	21	 F	1	1	0	2	1	45	0	182	528.88	0
123	21	 F	1	1	1	2	0	46	1	231	210.76	0
123	21	 F	1	1	0	2	0	47	1	182	241.20	0
123	21	 F	1	1	0	2	1	48	0	281	340.44	0
123	21	 F	1	1	0	2	0	49	1	231	374.91	0
123	21	 F	1	1	1	2	0	50	1	231	220.80	0
123	21	 F	1	1	0	2	0	51	1	231	251.30	0
123	21	 F	1	1	0	2	0	52	1	231	250.80	0
123	21	 F	1	0	0	2	0	53	1	182	431.40	0
123	21	 F	1	1	0	2	1	54	0	182	391.03	0
123	21	 F	1	1	0	2	0	55	1	281	330.21	0
123	21	 F	1	1	1	2	1	56	0	132	200.12	0
123	21	 F	1	1	0	2	1	57	0	182	354.96	0
123	21	 F	1	1	0	2	1	58	0	281	570.31	0
123	21	 F	1	0	0	2	0	59	0	281	977.95	0
123	21	 F	1	1	1	2	0	60	1	231	224.17	0
125	21	 F	1	1	1	2	0	1	1	231	443.24	0
125	21	 F	1	1	1	2	0	2	1	231	362.23	0
125	21	 F	1	1	1	2	1	3	0	132	380.45	0
125	21	 F	1	1	1	2	0	4	1	231	217.42	0
125	21	 F	1	1	1	2	0	5	1	231	217.68	0
125	21	 F	1	0	0	2	0	6	1	182	344.09	0
125	21	 F	1	1	0	2	1	7	0	281	614.69	0
125	21	 F	1	1	0	2	1	8	0	281	508.04	0
125	21	 F	1	1	1	2	1	9	0	132	222.26	0
125	21	 F	1	1	1	2	0	10	1	231	215.81	0
125	21	 F	1	1	0	2	0	11	1	281	412.28	0
125	21	 F	1	1	0	2	1	12	0	132	273.13	0
125	21	 F	1	1	1	2	1	13	0	132	211.61	0
125	21	 F	1	1	0	2	1	14	0	132	250.67	0
125	21	 F	1	1	0	2	1	15	0	132	341.47	0
125	21	 F	1	1	0	2	1	16	0	132	246.25	0
125	21	 F	1	1	0	2	1	17	0	132	243.72	0
125	21	 F	1	1	0	2	1	18	0	281	389.83	0
125	21	 F	1	1	1	2	0	19	1	231	213.29	0
125	21	 F	1	1	0	2	0	20	1	281	371.94	0
125	21	 F	1	1	0	2	0	21	1	231	273.62	0
125	21	 F	1	1	0	2	1	22	0	281	323.54	0
125	21	 F	1	1	1	2	0	23	1	231	223.87	0
125	21	 F	1	1	0	2	1	24	0	132	236.66	0
125	21	 F	1	1	0	2	0	25	1	231	324.90	0
125	21	 F	1	1	0	2	0	26	1	231	265.89	0
125	21	 F	1	1	1	2	0	27	1	231	219.01	0
125	21	 F	1	1	0	2	0	28	1	231	282.15	0
125	21	 F	1	1	0	2	1	29	0	132	402.59	0
125	21	 F	1	1	1	2	0	30	1	231	219.19	0
125	21	 F	1	1	0	2	1	31	0	132	285.90	0
125	21	 F	1	1	0	2	0	32	1	231	367.64	0
125	21	 F	1	1	1	2	1	33	0	132	204.97	0
125	21	 F	1	1	1	2	1	34	0	132	215.24	0
125	21	 F	1	1	0	2	1	35	0	132	243.16	0
125	21	 F	1	1	0	2	0	36	1	281	264.10	0
125	21	 F	1	1	0	2	0	37	1	231	282.13	0
125	21	 F	1	1	0	2	0	38	1	281	362.30	0
125	21	 F	1	1	0	2	1	39	0	182	541.93	0
125	21	 F	1	1	0	2	0	40	1	182	395.01	0
125	21	 F	1	1	0	2	1	41	0	132	246.32	0
125	21	 F	1	1	0	2	1	42	0	281	482.86	0
125	21	 F	1	0	0	2	1	43	1	182	490.31	0
125	21	 F	1	1	1	2	1	44	0	132	228.02	0
125	21	 F	1	1	0	2	1	45	0	182	520.34	0
125	21	 F	1	1	0	2	1	46	0	132	239.43	0
125	21	 F	1	1	1	2	1	47	0	132	210.97	0
125	21	 F	1	1	0	2	0	48	1	182	286.12	0
125	21	 F	1	1	0	2	1	49	0	132	242.68	0
125	21	 F	1	1	1	2	0	50	1	231	229.36	0
125	21	 F	1	1	0	2	1	51	0	182	384.23	0
125	21	 F	1	1	0	2	1	52	0	182	334.89	0
125	21	 F	1	1	1	2	0	53	1	231	205.99	0
125	21	 F	1	1	0	2	0	54	1	231	332.03	0
125	21	 F	1	1	0	2	0	55	1	182	393.09	0
125	21	 F	1	1	0	2	1	56	0	182	341.90	0
125	21	 F	1	1	0	2	0	57	1	231	264.58	0
125	21	 F	1	1	0	2	1	58	0	132	274.75	0
125	21	 F	1	1	0	2	0	59	1	281	298.48	0
125	21	 F	1	1	1	2	0	60	1	231	222.69	0
126	21	 F	1	1	1	2	0	1	1	231	385.68	0
126	21	 F	1	1	1	2	0	2	1	231	242.57	0
126	21	 F	1	1	1	2	0	3	1	231	218.21	0
126	21	 F	1	1	0	2	0	4	1	231	285.43	0
126	21	 F	1	1	1	2	1	5	0	132	238.03	0
126	21	 F	1	1	0	2	0	6	1	281	364.24	0
126	21	 F	1	1	0	2	0	7	1	182	307.96	0
126	21	 F	1	1	1	2	0	8	1	182	223.88	0
126	21	 F	1	1	1	2	1	9	0	132	203.42	0
126	21	 F	1	1	0	2	0	10	1	231	301.00	0
126	21	 F	1	1	0	2	1	11	0	132	246.68	0
126	21	 F	1	1	0	2	0	12	1	182	339.10	0
126	21	 F	1	1	0	2	1	13	0	132	638.17	0
126	21	 F	1	1	0	2	0	14	1	231	242.08	0
126	21	 F	1	1	0	2	0	15	1	231	261.33	0
126	21	 F	1	1	0	2	1	16	0	132	307.97	0
126	21	 F	1	1	0	2	1	17	0	182	294.02	0
126	21	 F	1	1	1	2	0	18	1	231	197.95	0
126	21	 F	1	1	0	2	1	19	0	132	263.32	0
126	21	 F	1	1	0	2	1	20	0	132	302.99	0
126	21	 F	1	1	1	2	1	21	0	132	213.86	0
126	21	 F	1	1	0	2	0	22	1	231	258.15	0
126	21	 F	1	1	0	2	0	23	1	281	363.66	0
126	21	 F	1	1	0	2	1	24	0	132	269.89	0
126	21	 F	1	1	0	2	0	25	1	231	278.70	0
126	21	 F	1	1	0	2	1	26	0	132	291.18	0
126	21	 F	1	1	1	2	0	27	1	231	206.50	0
126	21	 F	1	1	1	2	0	28	1	231	215.57	0
126	21	 F	1	1	0	2	1	29	0	132	260.82	0
126	21	 F	1	1	0	2	1	30	0	281	348.31	0
126	21	 F	1	1	1	2	0	31	1	231	222.13	0
126	21	 F	1	1	0	2	1	32	0	182	317.56	0
126	21	 F	1	1	0	2	1	33	0	281	366.99	0
126	21	 F	1	1	0	2	0	34	1	231	269.21	0
126	21	 F	1	1	0	2	1	35	0	132	229.52	0
126	21	 F	1	1	0	2	1	36	0	182	266.04	0
126	21	 F	1	1	0	2	1	37	0	182	353.92	0
126	21	 F	1	1	0	2	1	38	0	132	263.85	0
126	21	 F	1	1	0	2	1	39	0	132	249.99	0
126	21	 F	1	1	0	2	0	40	1	182	285.30	0
126	21	 F	1	0	0	2	0	41	1	281	401.82	0
126	21	 F	1	1	0	2	0	42	1	231	225.46	0
126	21	 F	1	1	1	2	1	43	0	132	204.23	0
126	21	 F	1	1	0	2	1	44	0	281	517.08	0
126	21	 F	1	1	0	2	0	45	1	231	255.68	0
126	21	 F	1	1	0	2	0	46	1	231	275.61	0
126	21	 F	1	1	0	2	1	47	0	281	402.46	0
126	21	 F	1	1	0	2	0	48	1	182	339.42	0
126	21	 F	1	1	0	2	1	49	0	132	231.14	0
126	21	 F	1	1	0	2	1	50	0	281	404.47	0
126	21	 F	1	1	1	2	0	51	1	231	213.27	0
126	21	 F	1	1	0	2	0	52	1	281	348.49	0
126	21	 F	1	1	1	2	1	53	0	132	189.24	0
126	21	 F	1	1	0	2	1	54	0	132	267.37	0
126	21	 F	1	1	0	2	1	55	0	182	463.06	0
126	21	 F	1	1	1	2	0	56	1	231	205.69	0
126	21	 F	1	1	0	2	1	57	0	132	293.92	0
126	21	 F	1	1	0	2	1	58	0	132	223.46	0
126	21	 F	1	1	0	2	0	59	1	231	231.49	0
126	21	 F	1	1	0	2	0	60	1	281	242.20	0
127	27	 F	1	1	1	2	1	1	0	132	737.23	0
127	27	 F	1	1	1	2	0	2	1	231	312.82	0
127	27	 F	1	1	0	2	1	3	0	182	807.61	0
127	27	 F	1	1	1	2	1	4	0	132	277.26	0
127	27	 F	1	1	0	2	0	5	1	231	688.50	0
127	27	 F	1	1	1	2	0	6	1	231	241.53	0
127	27	 F	1	1	0	2	1	7	0	132	387.04	0
127	27	 F	1	1	0	2	1	8	0	132	341.78	0
127	27	 F	1	1	0	2	1	9	0	132	319.34	0
127	27	 F	1	1	1	2	1	10	0	132	254.20	0
127	27	 F	1	1	0	2	0	11	1	281	645.03	0
127	27	 F	1	1	0	2	1	12	0	132	413.85	0
127	27	 F	1	1	1	2	0	13	1	231	215.65	0
127	27	 F	1	1	0	2	1	14	0	182	416.68	0
127	27	 F	1	1	0	2	0	15	1	231	402.28	0
127	27	 F	1	1	0	2	0	16	1	231	294.84	0
127	27	 F	1	1	0	2	1	17	0	132	314.68	0
127	27	 F	1	1	0	2	0	18	1	231	251.83	0
127	27	 F	1	1	0	2	0	19	1	231	658.11	0
127	27	 F	1	1	0	2	1	20	0	182	391.00	0
127	27	 F	1	1	1	2	1	21	0	132	200.52	0
127	27	 F	1	1	0	2	0	22	1	231	242.64	0
127	27	 F	1	1	0	2	0	23	1	231	343.03	0
127	27	 F	1	1	0	2	1	24	0	132	233.06	0
127	27	 F	1	1	0	2	0	25	1	281	305.46	0
127	27	 F	1	1	0	2	1	26	0	281	468.48	0
127	27	 F	1	1	0	2	1	27	0	132	572.16	0
127	27	 F	1	1	0	2	1	28	0	281	423.44	0
127	27	 F	1	1	0	2	0	29	1	231	281.32	0
127	27	 F	1	1	0	2	1	30	0	132	427.78	0
127	27	 F	1	1	0	2	1	31	0	132	379.96	0
127	27	 F	1	1	0	2	1	32	0	281	301.84	0
127	27	 F	1	1	0	2	1	33	0	281	428.07	0
127	27	 F	1	1	0	2	0	34	1	281	443.40	0
127	27	 F	1	1	0	2	0	35	1	231	598.71	0
127	27	 F	1	1	0	2	0	36	1	182	379.22	0
127	27	 F	1	1	0	2	1	37	0	182	505.09	0
127	27	 F	1	1	0	2	1	38	0	132	276.83	0
127	27	 F	1	1	0	2	0	39	1	231	530.36	0
127	27	 F	1	1	0	2	1	40	0	132	233.94	0
127	27	 F	1	1	0	2	1	41	0	182	582.65	0
127	27	 F	1	1	0	2	0	42	1	182	386.92	0
127	27	 F	1	1	0	2	1	43	0	132	334.87	0
127	27	 F	1	1	0	2	1	44	0	132	331.19	0
127	27	 F	1	1	0	2	0	45	1	231	284.34	0
127	27	 F	1	1	0	2	1	46	0	132	475.54	0
127	27	 F	1	1	0	2	1	47	0	132	291.22	0
127	27	 F	1	1	0	2	0	48	1	231	428.32	0
127	27	 F	1	1	0	2	0	49	1	231	271.49	0
127	27	 F	1	1	0	2	0	50	1	182	498.91	0
127	27	 F	1	1	0	2	1	51	0	132	332.25	0
127	27	 F	1	1	0	2	1	52	0	281	473.72	0
127	27	 F	1	1	0	2	0	53	1	231	317.24	0
127	27	 F	1	1	0	2	0	54	1	231	316.29	0
127	27	 F	1	1	0	2	0	55	1	281	561.84	0
127	27	 F	1	1	0	2	0	56	1	231	243.00	0
127	27	 F	1	1	0	2	0	57	1	182	493.71	0
127	27	 F	1	1	0	2	0	58	1	182	524.66	0
127	27	 F	1	1	0	2	0	59	1	231	317.00	0
127	27	 F	1	1	0	2	0	60	1	281	761.34	0
128	29	 F	1	1	1	2	0	1	1	182	478.35	0
128	29	 F	1	1	1	2	0	2	1	231	429.51	0
128	29	 F	1	1	1	2	1	3	0	132	282.75	0
128	29	 F	1	1	0	2	1	4	0	182	1583.90	0
128	29	 F	1	1	1	2	0	5	1	231	229.74	0
128	29	 F	1	1	1	2	1	6	0	132	242.94	0
128	29	 F	1	0	0	2	0	7	0	132	646.26	0
128	29	 F	1	1	0	2	1	8	0	132	446.65	0
128	29	 F	1	1	0	2	0	9	1	231	263.89	0
128	29	 F	1	1	1	2	1	10	0	132	243.20	0
128	29	 F	1	1	0	2	1	11	0	182	523.33	0
128	29	 F	1	1	1	2	1	12	0	132	234.90	0
128	29	 F	1	1	0	2	0	13	1	231	283.17	0
128	29	 F	1	1	0	2	0	14	1	182	435.76	0
128	29	 F	1	1	0	2	1	15	0	281	593.51	0
128	29	 F	1	1	0	2	1	16	0	132	371.61	0
128	29	 F	1	1	0	2	1	17	0	182	510.85	0
128	29	 F	1	1	0	2	0	18	1	182	527.76	0
128	29	 F	1	1	1	2	1	19	0	132	231.02	0
128	29	 F	1	1	0	2	0	20	1	281	508.95	0
128	29	 F	1	1	0	2	0	21	1	281	546.41	0
128	29	 F	1	1	1	2	0	22	1	231	254.08	0
128	29	 F	1	1	0	2	0	23	1	231	274.88	0
128	29	 F	1	1	0	2	0	24	1	281	432.22	0
128	29	 F	1	1	0	2	0	25	1	281	501.93	0
128	29	 F	1	1	0	2	1	26	0	132	302.53	0
128	29	 F	1	1	1	2	1	27	0	132	239.86	0
128	29	 F	1	1	0	2	1	28	0	281	461.75	0
128	29	 F	1	1	0	2	0	29	1	231	528.80	0
128	29	 F	1	1	0	2	0	30	1	231	345.06	0
128	29	 F	1	1	0	2	1	31	0	132	334.84	0
128	29	 F	1	1	0	2	0	32	1	231	527.55	0
128	29	 F	1	1	0	2	1	33	0	132	398.96	0
128	29	 F	1	1	1	2	0	34	1	231	240.89	0
128	29	 F	1	1	0	2	0	35	1	231	323.45	0
128	29	 F	1	1	0	2	0	36	1	231	337.30	0
128	29	 F	1	1	0	2	0	37	1	281	528.48	0
128	29	 F	1	1	0	2	0	38	1	182	433.40	0
128	29	 F	1	1	0	2	1	39	0	132	256.96	0
128	29	 F	1	1	0	2	1	40	0	132	414.37	0
128	29	 F	1	1	1	2	1	41	0	132	235.63	0
128	29	 F	1	1	0	2	1	42	0	132	302.53	0
128	29	 F	1	1	1	2	0	43	1	231	229.41	0
128	29	 F	1	1	0	2	0	44	1	231	294.21	0
128	29	 F	1	0	0	2	0	45	1	182	402.29	0
128	29	 F	1	1	0	2	0	46	1	231	518.35	0
128	29	 F	1	1	0	2	1	47	0	132	286.77	0
128	29	 F	1	1	0	2	1	48	0	132	399.12	0
128	29	 F	1	1	0	2	1	49	0	281	616.09	0
128	29	 F	1	1	0	2	1	50	0	281	519.17	0
128	29	 F	1	1	0	2	0	51	1	231	272.34	0
128	29	 F	1	1	0	2	0	52	1	231	296.27	0
128	29	 F	1	1	0	2	1	53	0	132	430.10	0
128	29	 F	1	1	0	2	1	54	0	182	501.22	0
128	29	 F	1	1	0	2	1	55	0	281	432.50	0
128	29	 F	1	1	0	2	0	56	1	231	523.91	0
128	29	 F	1	1	0	2	0	57	1	231	375.40	0
128	29	 F	1	1	0	2	1	58	0	182	446.56	0
128	29	 F	1	1	1	2	1	59	0	132	238.24	0
128	29	 F	1	1	1	2	0	60	1	231	240.46	0
129	21	 F	1	1	1	2	0	1	1	231	629.16	0
129	21	 F	1	1	1	2	1	2	0	132	358.18	0
129	21	 F	1	1	1	2	1	3	0	132	332.96	0
129	21	 F	1	1	1	2	0	4	1	182	355.49	0
129	21	 F	1	1	1	2	0	5	1	231	251.91	0
129	21	 F	1	1	1	2	0	6	1	231	253.77	0
129	21	 F	1	1	0	2	0	7	1	182	380.63	0
129	21	 F	1	1	0	2	0	8	1	281	279.60	0
129	21	 F	1	1	0	2	1	9	0	182	345.97	0
129	21	 F	1	1	1	2	0	10	1	231	210.76	0
129	21	 F	1	1	1	2	0	11	1	231	223.03	0
129	21	 F	1	1	1	2	1	12	0	132	194.47	0
129	21	 F	1	1	1	2	0	13	1	231	199.45	0
129	21	 F	1	1	0	2	1	14	0	132	248.02	0
129	21	 F	1	1	0	2	1	15	0	281	393.19	0
129	21	 F	1	1	0	2	1	16	0	281	335.33	0
129	21	 F	1	1	1	2	1	17	0	132	205.69	0
129	21	 F	1	1	0	2	0	18	1	231	236.12	0
129	21	 F	1	1	1	2	1	19	0	132	190.93	0
129	21	 F	1	1	0	2	0	20	1	231	216.79	0
129	21	 F	1	1	0	2	0	21	1	281	307.56	0
129	21	 F	1	1	1	2	0	22	1	231	198.29	0
129	21	 F	1	1	0	2	0	23	1	231	253.59	0
129	21	 F	1	1	0	2	1	24	0	132	341.71	0
129	21	 F	1	1	0	2	1	25	0	132	216.51	0
129	21	 F	1	1	1	2	0	26	1	231	207.67	0
129	21	 F	1	1	1	2	0	27	1	231	207.77	0
129	21	 F	1	0	0	2	1	28	1	281	490.96	0
129	21	 F	1	1	0	2	0	29	1	231	292.44	0
129	21	 F	1	1	0	2	1	30	0	281	442.97	0
129	21	 F	1	1	0	2	0	31	1	231	250.61	0
129	21	 F	1	1	1	2	0	32	1	231	203.94	0
129	21	 F	1	1	1	2	1	33	0	132	209.44	0
129	21	 F	1	1	0	2	0	34	1	281	741.39	0
129	21	 F	1	1	0	2	1	35	0	132	333.59	0
129	21	 F	1	1	0	2	1	36	0	132	306.32	0
129	21	 F	1	1	0	2	1	37	0	182	434.77	0
129	21	 F	1	1	1	2	1	38	0	132	212.80	0
129	21	 F	1	1	0	2	1	39	0	182	502.55	0
129	21	 F	1	1	1	2	1	40	0	132	189.70	0
129	21	 F	1	1	0	2	1	41	0	182	545.68	0
129	21	 F	1	1	1	2	1	42	0	132	204.65	0
129	21	 F	1	1	0	2	0	43	1	281	314.66	0
129	21	 F	1	1	1	2	1	44	0	132	210.55	0
129	21	 F	1	1	1	2	1	45	0	132	176.83	0
129	21	 F	1	1	0	2	1	46	0	132	303.41	0
129	21	 F	1	1	0	2	1	47	0	132	254.59	0
129	21	 F	1	1	0	2	0	48	1	231	233.99	0
129	21	 F	1	1	1	2	0	49	1	231	185.23	0
129	21	 F	1	1	0	2	1	50	0	182	488.98	0
129	21	 F	1	1	0	2	0	51	1	231	326.51	0
129	21	 F	1	1	0	2	0	52	1	182	424.47	0
129	21	 F	1	1	0	2	0	53	1	231	300.81	0
129	21	 F	1	1	0	2	0	54	1	182	417.38	0
129	21	 F	1	1	0	2	1	55	0	281	572.04	0
129	21	 F	1	1	0	2	1	56	0	281	389.61	0
129	21	 F	1	1	0	2	1	57	0	132	230.48	0
129	21	 F	1	1	0	2	1	58	0	132	213.93	0
129	21	 F	1	1	1	2	0	59	1	231	178.71	0
129	21	 F	1	1	0	2	0	60	1	182	379.91	0
130	48	 F	1	1	1	2	1	1	0	132	743.94	0
130	48	 F	1	1	1	2	0	2	1	231	510.30	0
130	48	 F	1	1	0	2	1	3	0	132	619.22	0
130	48	 F	1	1	0	2	1	4	0	182	1231.09	0
130	48	 F	1	1	1	2	1	5	0	132	504.77	0
130	48	 F	1	1	0	2	1	6	0	132	636.33	0
130	48	 F	1	1	0	2	0	7	1	281	718.78	0
130	48	 F	1	1	1	2	0	8	1	231	373.83	0
130	48	 F	1	1	0	2	1	9	0	182	462.09	0
130	48	 F	1	1	0	2	0	10	1	182	498.55	0
130	48	 F	1	1	0	2	0	11	1	182	521.83	0
130	48	 F	1	1	0	2	1	12	0	132	419.81	0
130	48	 F	1	1	0	2	0	13	1	182	447.71	0
130	48	 F	1	1	0	2	0	14	1	231	1543.14	0
130	48	 F	1	1	0	2	0	15	1	231	458.94	0
130	48	 F	1	1	0	2	0	16	1	231	418.51	0
130	48	 F	1	1	1	2	1	17	0	281	320.10	0
130	48	 F	1	1	0	2	0	18	1	231	626.81	0
130	48	 F	1	1	0	2	0	19	1	231	519.49	0
130	48	 F	1	1	0	2	0	20	1	231	345.42	0
130	48	 F	1	1	0	2	1	21	0	132	487.58	0
130	48	 F	1	1	0	2	1	22	0	281	736.66	0
130	48	 F	1	1	0	2	0	23	1	231	655.09	0
130	48	 F	1	1	0	2	1	24	0	132	429.74	0
130	48	 F	1	1	1	2	1	25	0	132	327.55	0
130	48	 F	1	0	0	2	0	26	0	132	1122.58	0
130	48	 F	1	1	0	2	1	27	0	132	721.76	0
130	48	 F	1	1	1	2	0	28	1	231	316.21	0
130	48	 F	1	1	0	2	1	29	0	281	926.75	0
130	48	 F	1	1	0	2	1	30	0	182	452.39	0
130	48	 F	1	1	0	2	1	31	0	132	474.48	0
130	48	 F	1	1	0	2	0	32	1	231	522.35	0
130	48	 F	1	0	0	2	0	33	0	132	1007.40	0
130	48	 F	1	1	0	2	0	34	1	231	514.82	0
130	48	 F	1	1	0	2	0	35	1	182	484.72	0
130	48	 F	1	0	0	2	0	36	1	182	469.40	0
130	48	 F	1	1	0	2	0	37	1	281	437.97	0
130	48	 F	1	1	0	2	1	38	0	132	669.00	0
130	48	 F	1	1	0	2	0	39	1	281	509.98	0
130	48	 F	1	1	0	2	0	40	1	231	511.30	0
130	48	 F	1	1	0	2	0	41	1	281	871.39	0
130	48	 F	1	1	0	2	1	42	0	182	442.79	0
130	48	 F	1	1	0	2	1	43	0	281	365.18	0
130	48	 F	1	1	1	2	0	44	1	231	308.76	0
130	48	 F	1	1	0	2	1	45	0	132	352.44	0
130	48	 F	1	1	1	2	0	46	1	231	229.08	0
130	48	 F	1	1	0	2	1	47	0	132	372.24	0
130	48	 F	1	1	0	2	0	48	1	231	314.10	0
130	48	 F	1	1	0	2	1	49	0	182	527.68	0
130	48	 F	1	1	1	2	0	50	1	231	251.01	0
130	48	 F	1	1	0	2	1	51	0	132	284.73	0
130	48	 F	1	1	0	2	1	52	0	132	320.90	0
130	48	 F	1	1	0	2	1	53	0	132	296.79	0
130	48	 F	1	1	1	2	1	54	0	132	243.55	0
130	48	 F	1	1	0	2	0	55	1	231	659.21	0
130	48	 F	1	1	0	2	0	56	1	231	317.97	0
130	48	 F	1	1	0	2	0	57	1	281	594.18	0
130	48	 F	1	1	0	2	1	58	0	132	350.47	0
130	48	 F	1	1	0	2	0	59	1	231	331.44	0
130	48	 F	1	1	0	2	1	60	0	281	508.06	0
131	21	 F	1	1	1	2	1	1	0	132	719.80	0
131	21	 F	1	1	1	2	0	2	1	231	389.20	0
131	21	 F	1	1	0	2	0	3	1	182	1731.12	0
131	21	 F	1	0	0	2	0	4	0	182	608.22	0
131	21	 F	1	1	0	2	1	5	0	132	521.08	0
131	21	 F	1	1	0	2	0	6	1	231	506.44	0
131	21	 F	1	1	1	2	1	7	0	132	374.12	0
131	21	 F	1	1	1	2	0	8	1	231	234.34	0
131	21	 F	1	1	1	2	0	9	1	231	255.86	0
131	21	 F	1	1	0	2	1	10	0	132	663.49	0
131	21	 F	1	1	0	2	0	11	1	281	473.42	0
131	21	 F	1	1	0	2	0	12	1	231	263.41	0
131	21	 F	1	1	1	2	0	13	1	231	237.60	0
131	21	 F	1	1	0	2	1	14	0	132	645.75	0
131	21	 F	1	1	1	2	0	15	1	231	244.28	0
131	21	 F	1	1	1	2	0	16	1	231	213.26	0
131	21	 F	1	1	0	2	0	17	1	231	239.46	0
131	21	 F	1	1	1	2	0	18	1	231	208.47	0
131	21	 F	1	1	1	2	1	19	0	132	227.06	0
131	21	 F	1	1	1	2	1	20	0	132	229.11	0
131	21	 F	1	1	0	2	0	21	1	231	277.94	0
131	21	 F	1	1	0	2	0	22	1	281	406.75	0
131	21	 F	1	1	0	2	1	23	0	182	273.51	0
131	21	 F	1	1	0	2	0	24	1	182	690.41	0
131	21	 F	1	1	0	2	0	25	1	231	259.39	0
131	21	 F	1	0	0	2	0	26	0	132	929.70	0
131	21	 F	1	1	0	2	0	27	1	231	420.63	0
131	21	 F	1	1	0	2	1	28	0	132	470.97	0
131	21	 F	1	1	0	2	1	29	0	281	486.61	0
131	21	 F	1	1	0	2	1	30	0	132	451.02	0
131	21	 F	1	1	0	2	0	31	1	281	471.27	0
131	21	 F	1	1	0	2	0	32	1	231	516.76	0
131	21	 F	1	1	1	2	1	33	0	132	226.58	0
131	21	 F	1	1	0	2	0	34	1	281	243.02	0
131	21	 F	1	1	1	2	0	35	1	231	229.49	0
131	21	 F	1	1	0	2	1	36	0	281	365.24	0
131	21	 F	1	1	0	2	1	37	0	132	961.93	0
131	21	 F	1	1	0	2	1	38	0	281	330.98	0
131	21	 F	1	1	0	2	1	39	0	132	498.99	0
131	21	 F	1	1	0	2	1	40	0	132	233.56	0
131	21	 F	1	1	0	2	1	41	0	132	350.11	0
131	21	 F	1	1	0	2	1	42	0	132	547.70	0
131	21	 F	1	1	0	2	1	43	0	132	391.79	0
131	21	 F	1	1	0	2	1	44	0	281	514.19	0
131	21	 F	1	1	0	2	1	45	0	182	531.75	0
131	21	 F	1	1	1	2	1	46	0	132	226.85	0
131	21	 F	1	1	0	2	0	47	1	281	640.38	0
131	21	 F	1	0	0	2	0	48	0	281	750.02	0
131	21	 F	1	1	0	2	1	49	0	132	329.66	0
131	21	 F	1	1	0	2	0	50	1	182	385.38	0
131	21	 F	1	1	0	2	0	51	1	231	317.75	0
131	21	 F	1	1	0	2	0	52	1	182	457.12	0
131	21	 F	1	1	0	2	0	53	1	231	560.14	0
131	21	 F	1	1	0	2	0	54	1	182	674.04	0
131	21	 F	1	1	0	2	0	55	1	231	480.51	0
131	21	 F	1	1	0	2	1	56	0	132	721.13	0
131	21	 F	1	1	0	2	1	57	0	182	496.63	0
131	21	 F	1	1	0	2	0	58	1	231	342.37	0
131	21	 F	1	1	0	2	1	59	0	182	362.48	0
131	21	 F	1	1	0	2	0	60	1	231	385.76	0
132	22	 F	0	1	1	2	0	1	1	231	853.28	0
132	22	 F	0	1	1	2	1	2	0	132	242.23	0
132	22	 F	0	1	1	2	1	3	0	132	228.55	0
132	22	 F	0	1	1	2	0	4	1	231	213.98	0
132	22	 F	0	1	0	2	0	5	1	231	375.44	0
132	22	 F	0	1	0	2	0	6	1	281	501.22	0
132	22	 F	0	1	0	2	1	7	0	132	344.85	0
132	22	 F	0	1	0	2	0	8	1	231	736.33	0
132	22	 F	0	1	1	2	0	9	1	231	198.86	0
132	22	 F	0	1	0	2	1	10	0	132	262.96	0
132	22	 F	0	1	0	2	1	11	0	182	472.76	0
132	22	 F	0	1	0	2	0	12	1	281	413.40	0
132	22	 F	0	1	0	2	1	13	0	132	258.52	0
132	22	 F	0	1	0	2	0	14	1	182	696.67	0
132	22	 F	0	1	0	2	0	15	1	231	362.33	0
132	22	 F	0	1	0	2	0	16	1	231	518.99	0
132	22	 F	0	1	0	2	0	17	1	182	651.36	0
132	22	 F	0	1	0	2	1	18	0	132	333.29	0
132	22	 F	0	1	0	2	1	19	0	281	851.65	0
132	22	 F	0	0	0	2	0	20	1	231	262.90	0
132	22	 F	0	1	0	2	0	21	1	281	522.38	0
132	22	 F	0	0	0	2	1	22	1	231	220.76	0
132	22	 F	0	1	0	2	1	23	0	132	229.16	0
132	22	 F	0	1	0	2	0	24	1	182	518.33	0
132	22	 F	0	1	0	2	0	25	1	231	592.78	0
132	22	 F	0	1	0	2	1	26	0	132	298.46	0
132	22	 F	0	1	0	2	0	27	1	281	503.89	0
132	22	 F	0	1	0	2	0	28	1	231	511.47	0
132	22	 F	0	1	0	2	1	29	0	182	510.33	0
132	22	 F	0	1	0	2	1	30	0	132	506.86	0
132	22	 F	0	1	0	2	1	31	0	281	755.01	0
132	22	 F	0	1	0	2	1	32	0	281	487.15	0
132	22	 F	0	1	0	2	1	33	0	132	345.70	0
132	22	 F	0	1	0	2	0	34	1	231	372.19	0
132	22	 F	0	1	1	2	0	35	1	231	194.46	0
132	22	 F	0	1	0	2	0	36	1	231	222.43	0
132	22	 F	0	1	0	2	1	37	0	132	245.97	0
132	22	 F	0	1	0	2	0	38	1	182	769.25	0
132	22	 F	0	1	0	2	1	39	0	132	227.38	0
132	22	 F	0	1	0	2	0	40	1	182	738.87	0
132	22	 F	0	1	0	2	1	41	0	132	235.69	0
132	22	 F	0	1	0	2	1	42	0	132	330.59	0
132	22	 F	0	1	0	2	1	43	0	281	506.11	0
132	22	 F	0	1	0	2	1	44	0	182	549.49	0
132	22	 F	0	1	1	2	1	45	0	132	192.57	0
132	22	 F	0	1	1	2	0	46	1	231	212.08	0
132	22	 F	0	1	0	2	0	47	1	281	463.01	0
132	22	 F	0	1	1	2	1	48	0	132	189.98	0
132	22	 F	0	1	1	2	1	49	0	132	203.35	0
132	22	 F	0	1	0	2	0	50	1	231	246.23	0
132	22	 F	0	1	0	2	1	51	0	281	368.32	0
132	22	 F	0	1	0	2	1	52	0	182	399.79	0
132	22	 F	0	1	0	2	0	53	1	231	246.46	0
132	22	 F	0	1	0	2	1	54	0	182	506.43	0
132	22	 F	0	1	0	2	0	55	1	231	245.44	0
132	22	 F	0	1	0	2	1	56	0	132	225.90	0
132	22	 F	0	1	0	2	0	57	1	231	384.85	0
132	22	 F	0	1	0	2	1	58	0	132	258.54	0
132	22	 F	0	1	0	2	1	59	0	132	576.53	0
132	22	 F	0	1	0	2	0	60	1	231	314.04	0
133	19	 F	1	1	1	2	1	1	0	132	1173.15	0
133	19	 F	1	1	1	2	0	2	1	182	399.16	0
133	19	 F	1	1	1	2	0	3	1	231	220.17	0
133	19	 F	1	1	1	2	0	4	1	231	220.58	0
133	19	 F	1	1	1	2	0	5	1	231	240.86	0
133	19	 F	1	1	1	2	1	6	0	132	231.44	0
133	19	 F	1	1	0	2	0	7	1	231	262.56	0
133	19	 F	1	1	1	2	1	8	0	132	222.75	0
133	19	 F	1	1	1	2	1	9	0	132	235.18	0
133	19	 F	1	1	0	2	1	10	0	281	480.38	0
133	19	 F	1	1	0	2	1	11	0	132	361.96	0
133	19	 F	1	1	0	2	0	12	1	281	325.65	0
133	19	 F	1	1	1	2	0	13	1	231	222.21	0
133	19	 F	1	1	0	2	0	14	1	231	409.06	0
133	19	 F	1	1	0	2	1	15	0	281	395.94	0
133	19	 F	1	1	1	2	0	16	1	231	243.47	0
133	19	 F	1	1	1	2	1	17	0	132	238.69	0
133	19	 F	1	1	1	2	1	18	0	132	220.77	0
133	19	 F	1	1	1	2	1	19	0	132	205.60	0
133	19	 F	1	1	1	2	1	20	0	132	212.50	0
133	19	 F	1	1	0	2	1	21	0	182	407.53	0
133	19	 F	1	1	0	2	1	22	0	132	267.17	0
133	19	 F	1	1	0	2	1	23	0	182	347.25	0
133	19	 F	1	1	1	2	0	24	1	231	216.45	0
133	19	 F	1	1	0	2	1	25	0	182	382.80	0
133	19	 F	1	1	0	2	1	26	0	281	427.18	0
133	19	 F	1	1	0	2	1	27	0	281	388.40	0
133	19	 F	1	1	1	2	1	28	0	132	191.05	0
133	19	 F	1	1	1	2	0	29	1	231	208.56	0
133	19	 F	1	1	0	2	1	30	0	132	471.25	0
133	19	 F	1	1	0	2	0	31	1	182	398.84	0
133	19	 F	1	1	1	2	1	32	0	132	193.73	0
133	19	 F	1	1	0	2	0	33	1	281	373.71	0
133	19	 F	1	1	0	2	0	34	1	281	483.92	0
133	19	 F	1	1	0	2	0	35	1	231	228.36	0
133	19	 F	1	1	0	2	1	36	0	132	243.34	0
133	19	 F	1	1	0	2	0	37	1	231	257.52	0
133	19	 F	1	1	0	2	0	38	1	281	398.03	0
133	19	 F	1	1	1	2	1	39	0	132	210.59	0
133	19	 F	1	1	0	2	1	40	0	132	231.26	0
133	19	 F	1	1	0	2	0	41	1	231	364.01	0
133	19	 F	1	1	0	2	1	42	0	132	258.36	0
133	19	 F	1	1	1	2	0	43	1	231	199.65	0
133	19	 F	1	1	0	2	0	44	1	182	429.08	0
133	19	 F	1	1	0	2	1	45	0	281	274.99	0
133	19	 F	1	1	1	2	0	46	1	231	202.59	0
133	19	 F	1	1	0	2	1	47	0	132	228.53	0
133	19	 F	1	0	0	2	0	48	0	182	573.86	0
133	19	 F	1	1	0	2	0	49	1	231	370.88	0
133	19	 F	1	1	0	2	0	50	1	182	412.30	0
133	19	 F	1	1	0	2	0	51	1	231	217.78	0
133	19	 F	1	1	0	2	0	52	1	182	496.75	0
133	19	 F	1	1	0	2	0	53	1	281	405.13	0
133	19	 F	1	1	1	2	0	54	1	231	196.16	0
133	19	 F	1	1	0	2	0	55	1	231	280.40	0
133	19	 F	1	1	1	2	1	56	0	132	211.50	0
133	19	 F	1	1	0	2	0	57	1	231	626.84	0
133	19	 F	1	1	0	2	0	58	1	231	532.21	0
133	19	 F	1	1	0	2	1	59	0	182	567.29	0
133	19	 F	1	1	0	2	1	60	0	132	273.81	0
135	21	 F	0	1	1	2	0	1	1	231	675.13	0
135	21	 F	0	1	1	2	0	2	1	231	300.94	0
135	21	 F	0	1	0	2	0	3	1	231	564.90	0
135	21	 F	0	1	1	2	1	4	0	132	238.65	0
135	21	 F	0	1	0	2	1	5	0	132	485.98	0
135	21	 F	0	1	0	2	0	6	1	231	288.55	0
135	21	 F	0	1	0	2	1	7	0	132	350.57	0
135	21	 F	0	1	0	2	0	8	1	231	376.00	0
135	21	 F	0	1	0	2	1	9	0	281	643.36	0
135	21	 F	0	1	0	2	0	10	1	281	617.96	0
135	21	 F	0	1	0	2	0	11	1	231	303.88	0
135	21	 F	0	1	1	2	1	12	0	132	237.62	0
135	21	 F	0	1	1	2	0	13	1	231	220.48	0
135	21	 F	0	1	0	2	1	14	0	132	846.76	0
135	21	 F	0	1	0	2	1	15	0	132	438.49	0
135	21	 F	0	1	1	2	0	16	1	231	236.95	0
135	21	 F	0	1	0	2	1	17	0	132	328.95	0
135	21	 F	0	1	0	2	0	18	1	231	424.00	0
135	21	 F	0	1	0	2	1	19	0	132	627.67	0
135	21	 F	0	1	0	2	0	20	1	182	486.23	0
135	21	 F	0	1	0	2	1	21	0	281	407.58	0
135	21	 F	0	0	0	2	0	22	0	281	882.54	0
135	21	 F	0	1	0	2	0	23	1	182	622.79	0
135	21	 F	0	1	0	2	1	24	0	132	394.70	0
135	21	 F	0	1	0	2	1	25	0	182	408.95	0
135	21	 F	0	1	0	2	0	26	1	231	397.72	0
135	21	 F	0	1	0	2	1	27	0	281	824.57	0
135	21	 F	0	1	0	2	0	28	1	231	250.88	0
135	21	 F	0	1	0	2	0	29	1	182	339.42	0
135	21	 F	0	1	0	2	0	30	1	231	278.15	0
135	21	 F	0	1	0	2	1	31	0	132	448.26	0
135	21	 F	0	1	0	2	1	32	0	132	467.00	0
135	21	 F	0	1	0	2	1	33	0	132	326.62	0
135	21	 F	0	1	0	2	1	34	0	182	302.98	0
135	21	 F	0	1	0	2	0	35	1	281	461.94	0
135	21	 F	0	0	0	2	0	36	0	132	297.77	0
135	21	 F	0	1	0	2	1	37	0	132	350.66	0
135	21	 F	0	1	1	2	0	38	1	231	215.91	0
135	21	 F	0	1	0	2	1	39	0	182	299.57	0
135	21	 F	0	1	0	2	1	40	0	182	471.11	0
135	21	 F	0	1	0	2	1	41	0	132	245.26	0
135	21	 F	0	1	0	2	0	42	1	231	242.49	0
135	21	 F	0	0	0	2	0	43	1	182	499.30	0
135	21	 F	0	1	0	2	0	44	1	281	566.61	0
135	21	 F	0	1	1	2	1	45	0	132	226.74	0
135	21	 F	0	1	0	2	0	46	1	281	619.50	0
135	21	 F	0	1	0	2	0	47	1	281	647.53	0
135	21	 F	0	0	0	2	0	48	1	182	270.55	0
135	21	 F	0	1	0	2	1	49	0	182	923.72	0
135	21	 F	0	0	0	2	0	50	0	281	623.11	0
135	21	 F	0	1	0	2	0	51	1	231	254.84	0
135	21	 F	0	1	1	2	0	52	1	231	221.40	0
135	21	 F	0	1	0	2	1	53	0	132	371.68	0
135	21	 F	0	1	0	2	0	54	1	231	499.75	0
135	21	 F	0	1	0	2	0	55	1	231	317.67	0
135	21	 F	0	1	0	2	0	56	1	231	372.44	0
135	21	 F	0	1	0	2	1	57	0	132	469.28	0
135	21	 F	0	1	0	2	1	58	0	132	297.19	0
135	21	 F	0	1	0	2	0	59	1	231	773.78	0
135	21	 F	0	1	0	2	1	60	0	132	379.45	0
136	21	 F	0	1	1	2	1	1	0	132	1266.27	0
136	21	 F	0	1	1	2	1	2	0	182	533.02	0
136	21	 F	0	1	1	2	1	3	0	132	450.97	0
136	21	 F	0	1	1	2	0	4	1	231	350.37	0
136	21	 F	0	1	0	2	1	5	0	132	419.19	0
136	21	 F	0	1	1	2	0	6	1	231	327.30	0
136	21	 F	0	1	0	2	0	7	1	281	377.58	0
136	21	 F	0	1	1	2	1	8	0	132	263.77	0
136	21	 F	0	1	1	2	1	9	0	132	269.03	0
136	21	 F	0	1	0	2	1	10	0	132	315.40	0
136	21	 F	0	1	0	2	1	11	0	132	337.78	0
136	21	 F	0	1	0	2	0	12	1	231	290.20	0
136	21	 F	0	1	0	2	0	13	1	231	305.81	0
136	21	 F	0	1	0	2	1	14	0	132	360.14	0
136	21	 F	0	1	1	2	0	15	1	231	246.13	0
136	21	 F	0	1	0	2	1	16	0	281	570.38	0
136	21	 F	0	1	0	2	1	17	0	132	300.23	0
136	21	 F	0	1	0	2	1	18	0	132	314.73	0
136	21	 F	0	1	0	2	0	19	1	182	441.81	0
136	21	 F	0	1	1	2	1	20	0	132	203.05	0
136	21	 F	0	1	0	2	1	21	0	182	339.77	0
136	21	 F	0	1	0	2	0	22	1	231	262.87	0
136	21	 F	0	1	0	2	1	23	0	132	246.46	0
136	21	 F	0	1	0	2	0	24	1	231	299.42	0
136	21	 F	0	1	0	2	0	25	1	231	294.32	0
136	21	 F	0	1	0	2	0	26	1	231	267.83	0
136	21	 F	0	1	0	2	0	27	1	231	269.73	0
136	21	 F	0	1	0	2	0	28	1	182	550.20	0
136	21	 F	0	1	0	2	0	29	1	231	275.08	0
136	21	 F	0	1	0	2	0	30	1	231	305.13	0
136	21	 F	0	1	0	2	0	31	1	182	701.63	0
136	21	 F	0	1	0	2	1	32	0	281	381.88	0
136	21	 F	0	1	0	2	0	33	1	231	366.94	0
136	21	 F	0	1	0	2	1	34	0	132	249.29	0
136	21	 F	0	1	0	2	1	35	0	281	513.63	0
136	21	 F	0	1	0	2	0	36	1	231	255.09	0
136	21	 F	0	1	0	2	1	37	0	132	293.71	0
136	21	 F	0	1	0	2	1	38	0	132	363.48	0
136	21	 F	0	1	0	2	1	39	0	182	430.22	0
136	21	 F	0	1	0	2	1	40	0	281	365.70	0
136	21	 F	0	1	0	2	0	41	1	231	279.17	0
136	21	 F	0	1	0	2	1	42	0	182	848.75	0
136	21	 F	0	1	0	2	0	43	1	231	263.08	0
136	21	 F	0	1	0	2	0	44	1	281	503.44	0
136	21	 F	0	1	0	2	0	45	1	231	270.23	0
136	21	 F	0	1	0	2	0	46	1	281	421.76	0
136	21	 F	0	1	0	2	1	47	0	132	268.01	0
136	21	 F	0	1	0	2	0	48	1	281	301.57	0
136	21	 F	0	1	0	2	1	49	0	132	248.88	0
136	21	 F	0	1	0	2	0	50	1	231	273.29	0
136	21	 F	0	1	0	2	1	51	0	132	326.32	0
136	21	 F	0	1	0	2	1	52	0	132	278.19	0
136	21	 F	0	1	0	2	0	53	1	182	428.71	0
136	21	 F	0	1	0	2	0	54	1	231	264.35	0
136	21	 F	0	1	0	2	0	55	1	182	382.47	0
136	21	 F	0	1	0	2	1	56	0	182	416.48	0
136	21	 F	0	1	0	2	0	57	1	281	639.08	0
136	21	 F	0	1	0	2	1	58	0	281	554.40	0
136	21	 F	0	1	0	2	0	59	1	231	279.10	0
136	21	 F	0	1	0	2	1	60	0	132	238.76	0
124	30	 M	1	1	1	2	0	1	1	231	811.12	0
124	30	 M	1	0	0	2	0	2	1	231	361.45	0
124	30	 M	1	1	1	2	1	3	0	182	249.06	0
124	30	 M	1	1	1	2	0	4	1	231	211.52	0
124	30	 M	1	1	0	2	1	5	0	281	360.60	0
124	30	 M	1	1	0	2	0	6	1	281	280.46	0
124	30	 M	1	0	0	2	1	7	1	182	258.26	0
124	30	 M	1	1	1	2	1	8	0	132	202.57	0
124	30	 M	1	1	0	2	1	9	0	132	323.71	0
124	30	 M	1	1	0	2	0	10	1	182	232.06	0
124	30	 M	1	1	0	2	0	11	1	231	252.41	0
124	30	 M	1	1	1	2	1	12	0	132	122.14	0
124	30	 M	1	1	0	2	1	13	0	182	381.60	0
124	30	 M	1	1	0	2	0	14	1	231	184.72	0
124	30	 M	1	1	0	2	0	15	1	231	209.41	0
124	30	 M	1	1	0	2	1	16	0	132	185.55	0
124	30	 M	1	1	0	2	1	17	0	132	222.34	0
124	30	 M	1	1	0	2	0	18	1	182	258.02	0
124	30	 M	1	1	0	2	1	19	0	132	250.36	0
124	30	 M	1	1	0	2	1	20	0	182	503.89	0
124	30	 M	1	1	0	2	1	21	0	132	201.96	0
124	30	 M	1	1	0	2	0	22	1	281	354.57	0
124	30	 M	1	1	0	2	0	23	1	231	192.55	0
124	30	 M	1	1	0	2	1	24	0	132	44957.29	0
124	30	 M	1	1	0	2	1	25	0	182	365.74	0
124	30	 M	1	1	0	2	0	26	1	182	354.52	0
124	30	 M	1	1	0	2	1	27	0	182	258.50	0
124	30	 M	1	1	0	2	1	28	0	132	222.69	0
124	30	 M	1	1	0	2	1	29	0	132	204.47	0
124	30	 M	1	1	0	2	1	30	0	132	325.70	0
124	30	 M	1	1	0	2	0	31	1	182	275.37	0
124	30	 M	1	1	0	2	0	32	1	231	229.75	0
124	30	 M	1	1	1	2	1	33	0	132	82.70	0
124	30	 M	1	0	0	2	1	34	1	231	201.47	0
124	30	 M	1	1	0	2	1	35	0	132	201.36	0
124	30	 M	1	1	0	2	1	36	0	132	247.50	0
124	30	 M	1	1	0	2	0	37	1	231	1289.33	0
124	30	 M	1	1	0	2	1	38	0	132	219.92	0
124	30	 M	1	1	0	2	1	39	0	132	198.06	0
124	30	 M	1	1	0	2	1	40	0	132	237.85	0
124	30	 M	1	1	0	2	0	41	1	231	255.37	0
124	30	 M	1	1	0	2	1	42	0	281	361.31	0
124	30	 M	1	1	0	2	0	43	1	231	243.70	0
124	30	 M	1	1	0	2	0	44	1	231	216.48	0
124	30	 M	1	1	0	2	1	45	0	132	195.52	0
124	30	 M	1	0	0	2	1	46	1	231	185.52	0
124	30	 M	1	1	0	2	0	47	1	281	407.37	0
124	30	 M	1	1	0	2	0	48	1	231	315.02	0
124	30	 M	1	1	0	2	0	49	1	231	205.90	0
124	30	 M	1	1	0	2	1	50	0	132	222.44	0
124	30	 M	1	1	0	2	1	51	0	132	251.95	0
124	30	 M	1	1	0	2	1	52	0	281	687.58	0
124	30	 M	1	1	0	2	0	53	1	281	364.28	0
124	30	 M	1	1	0	2	1	54	0	281	325.60	0
124	30	 M	1	1	0	2	0	55	1	281	396.98	0
124	30	 M	1	1	0	2	0	56	1	231	198.01	0
124	30	 M	1	1	0	2	0	57	1	231	198.62	0
124	30	 M	1	1	0	2	1	58	0	281	257.78	0
124	30	 M	1	1	0	2	0	59	1	231	156.53	0
124	30	 M	1	0	0	2	1	60	1	231	137233.72	0
134	21	 M	0	1	1	2	1	1	0	132	706.30	0
134	21	 M	0	1	1	2	1	2	0	132	569.37	0
134	21	 M	0	1	0	2	1	3	0	182	620.42	0
134	21	 M	0	1	1	2	0	4	1	182	591.39	0
134	21	 M	0	1	1	2	1	5	0	182	545.88	0
134	21	 M	0	1	1	2	0	6	1	231	248.11	0
134	21	 M	0	1	0	2	1	7	0	281	523.57	0
134	21	 M	0	1	0	2	1	8	0	281	620.63	0
134	21	 M	0	1	1	2	1	9	0	132	264.82	0
134	21	 M	0	1	1	2	0	10	1	231	271.36	0
134	21	 M	0	1	0	2	1	11	0	132	324.28	0
134	21	 M	0	1	1	2	0	12	1	231	238.96	0
134	21	 M	0	1	0	2	1	13	0	281	559.05	0
134	21	 M	0	1	1	2	0	14	1	231	204.05	0
134	21	 M	0	1	0	2	0	15	1	281	559.83	0
134	21	 M	0	1	0	2	1	16	0	132	241.17	0
134	21	 M	0	1	0	2	1	17	0	132	251.94	0
134	21	 M	0	1	0	2	1	18	0	132	240.22	0
134	21	 M	0	1	0	2	1	19	0	132	321.55	0
134	21	 M	0	1	0	2	0	20	1	231	274.09	0
134	21	 M	0	1	0	2	1	21	0	132	381.75	0
134	21	 M	0	1	0	2	0	22	1	281	306.08	0
134	21	 M	0	1	1	2	0	23	1	231	200.98	0
134	21	 M	0	1	0	2	1	24	0	182	315.49	0
134	21	 M	0	1	0	2	1	25	0	182	404.23	0
134	21	 M	0	1	1	2	0	26	1	231	211.69	0
134	21	 M	0	1	1	2	1	27	0	132	220.42	0
134	21	 M	0	1	0	2	1	28	0	132	284.24	0
134	21	 M	0	1	0	2	1	29	0	281	321.33	0
134	21	 M	0	1	1	2	1	30	0	132	218.73	0
134	21	 M	0	1	0	2	0	31	1	182	450.28	0
134	21	 M	0	1	0	2	1	32	0	132	226.12	0
134	21	 M	0	1	0	2	0	33	1	231	243.93	0
134	21	 M	0	1	0	2	0	34	1	231	365.30	0
134	21	 M	0	1	1	2	0	35	1	231	194.79	0
134	21	 M	0	1	0	2	0	36	1	281	356.58	0
134	21	 M	0	1	1	2	0	37	1	231	210.29	0
134	21	 M	0	1	0	2	0	38	1	231	234.52	0
134	21	 M	0	1	1	2	1	39	0	132	205.42	0
134	21	 M	0	1	0	2	0	40	1	182	368.32	0
134	21	 M	0	1	0	2	0	41	1	231	313.70	0
134	21	 M	0	1	0	2	0	42	1	231	240.91	0
134	21	 M	0	1	0	2	1	43	0	132	296.96	0
134	21	 M	0	1	1	2	0	44	1	231	209.00	0
134	21	 M	0	1	0	2	0	45	1	231	297.07	0
134	21	 M	0	1	0	2	0	46	1	281	462.49	0
134	21	 M	0	1	0	2	1	47	0	281	229.72	0
134	21	 M	0	1	1	2	0	48	1	231	212.84	0
134	21	 M	0	1	0	2	0	49	1	231	324.16	0
134	21	 M	0	1	0	2	1	50	0	132	263.01	0
134	21	 M	0	1	0	2	1	51	0	132	250.18	0
134	21	 M	0	1	0	2	1	52	0	132	297.58	0
134	21	 M	0	1	0	2	0	53	1	231	425.40	0
134	21	 M	0	1	0	2	0	54	1	182	269.35	0
134	21	 M	0	1	0	2	1	55	0	132	234.78	0
134	21	 M	0	1	0	2	1	56	0	182	379.32	0
134	21	 M	0	1	0	2	0	57	1	182	354.86	0
134	21	 M	0	1	0	2	0	58	1	231	226.02	0
134	21	 M	0	1	1	2	1	59	0	132	198.32	0
134	21	 M	0	1	0	2	0	60	1	281	290.97	0
137	26	 M	1	1	1	2	0	1	1	281	524.24	0
137	26	 M	1	1	0	2	1	2	0	132	726.92	0
137	26	 M	1	0	0	2	1	3	1	281	405.66	0
137	26	 M	1	1	1	2	0	4	1	231	251.06	0
137	26	 M	1	0	0	2	0	5	1	231	229.77	0
137	26	 M	1	1	0	2	0	6	1	231	558.12	0
137	26	 M	1	1	0	2	1	7	0	132	348.82	0
137	26	 M	1	1	0	2	1	8	0	132	384.90	0
137	26	 M	1	1	1	2	1	9	0	132	231.54	0
137	26	 M	1	1	0	2	0	10	1	281	330.67	0
137	26	 M	1	1	1	2	1	11	0	132	225.50	0
137	26	 M	1	1	1	2	1	12	0	132	212.19	0
137	26	 M	1	1	0	2	0	13	1	182	259.73	0
137	26	 M	1	1	1	2	0	14	1	231	223.77	0
137	26	 M	1	1	0	2	1	15	0	182	389.81	0
137	26	 M	1	1	0	2	1	16	0	132	348.30	0
137	26	 M	1	1	0	2	1	17	0	281	644.01	0
137	26	 M	1	1	1	2	0	18	1	231	194.89	0
137	26	 M	1	0	0	2	0	19	1	231	257.46	0
137	26	 M	1	1	0	2	0	20	1	182	633.73	0
137	26	 M	1	1	0	2	1	21	0	132	292.67	0
137	26	 M	1	1	0	2	1	22	0	281	539.83	0
137	26	 M	1	1	1	2	0	23	1	231	192.31	0
137	26	 M	1	1	0	2	0	24	1	182	514.33	0
137	26	 M	1	1	0	2	0	25	1	281	352.61	0
137	26	 M	1	1	1	2	1	26	0	132	204.54	0
137	26	 M	1	0	0	2	0	27	1	182	199.35	0
137	26	 M	1	1	0	2	0	28	1	182	508.28	0
137	26	 M	1	1	0	2	1	29	0	132	348.67	0
137	26	 M	1	1	0	2	1	30	0	182	1001.22	0
137	26	 M	1	1	0	2	0	31	1	231	259.37	0
137	26	 M	1	1	1	2	1	32	0	132	188.02	0
137	26	 M	1	1	0	2	1	33	0	182	422.82	0
137	26	 M	1	1	0	2	1	34	0	281	709.11	0
137	26	 M	1	1	1	2	0	35	1	231	56.28	0
137	26	 M	1	1	0	2	0	36	1	231	299.64	0
137	26	 M	1	1	0	2	0	37	1	231	192.80	0
137	26	 M	1	1	0	2	1	38	0	132	211.70	0
137	26	 M	1	1	0	2	1	39	0	132	293.55	0
137	26	 M	1	1	0	2	0	40	1	231	217.65	0
137	26	 M	1	1	0	2	1	41	0	182	609.61	0
137	26	 M	1	1	0	2	0	42	1	231	368.16	0
137	26	 M	1	1	0	2	1	43	0	132	196.88	0
137	26	 M	1	1	0	2	1	44	0	281	425.81	0
137	26	 M	1	1	0	2	1	45	0	182	350.94	0
137	26	 M	1	1	0	2	1	46	0	132	191.25	0
137	26	 M	1	1	0	2	1	47	0	132	225.75	0
137	26	 M	1	1	0	2	1	48	0	281	435.33	0
137	26	 M	1	1	0	2	1	49	0	132	257.96	0
137	26	 M	1	1	0	2	1	50	0	132	198.81	0
137	26	 M	1	1	0	2	0	51	1	231	174.68	0
137	26	 M	1	1	0	2	1	52	0	132	214.06	0
137	26	 M	1	1	0	2	1	53	0	132	228.21	0
137	26	 M	1	0	0	2	0	54	1	281	356.37	0
137	26	 M	1	1	0	2	0	55	1	231	218.56	0
137	26	 M	1	1	0	2	0	56	1	231	254.47	0
137	26	 M	1	1	0	2	0	57	1	231	202.69	0
137	26	 M	1	1	0	2	0	58	1	231	170.53	0
137	26	 M	1	1	1	2	0	59	1	231	20.94	0
137	26	 M	1	1	0	2	0	60	1	231	213.95	0
